#  E (eV)   dos(E)     Int dos(E) EFermi =   10.775 eV
   0.000  0.0000E+00  0.6000E+02
   0.010  0.0000E+00  0.6000E+02
   0.020  0.0000E+00  0.6000E+02
   0.030  0.0000E+00  0.6000E+02
   0.040  0.0000E+00  0.6000E+02
   0.050  0.0000E+00  0.6000E+02
   0.060  0.0000E+00  0.6000E+02
   0.070  0.0000E+00  0.6000E+02
   0.080  0.0000E+00  0.6000E+02
   0.090  0.0000E+00  0.6000E+02
   0.100  0.0000E+00  0.6000E+02
   0.110  0.0000E+00  0.6000E+02
   0.120  0.0000E+00  0.6000E+02
   0.130  0.0000E+00  0.6000E+02
   0.140  0.0000E+00  0.6000E+02
   0.150  0.0000E+00  0.6000E+02
   0.160  0.0000E+00  0.6000E+02
   0.170  0.0000E+00  0.6000E+02
   0.180  0.0000E+00  0.6000E+02
   0.190  0.0000E+00  0.6000E+02
   0.200  0.0000E+00  0.6000E+02
   0.210  0.0000E+00  0.6000E+02
   0.220  0.0000E+00  0.6000E+02
   0.230  0.0000E+00  0.6000E+02
   0.240  0.0000E+00  0.6000E+02
   0.250  0.0000E+00  0.6000E+02
   0.260  0.0000E+00  0.6000E+02
   0.270  0.0000E+00  0.6000E+02
   0.280  0.0000E+00  0.6000E+02
   0.290  0.0000E+00  0.6000E+02
   0.300  0.0000E+00  0.6000E+02
   0.310  0.0000E+00  0.6000E+02
   0.320  0.0000E+00  0.6000E+02
   0.330  0.0000E+00  0.6000E+02
   0.340  0.0000E+00  0.6000E+02
   0.350  0.0000E+00  0.6000E+02
   0.360  0.0000E+00  0.6000E+02
   0.370  0.0000E+00  0.6000E+02
   0.380  0.0000E+00  0.6000E+02
   0.390  0.0000E+00  0.6000E+02
   0.400  0.0000E+00  0.6000E+02
   0.410  0.0000E+00  0.6000E+02
   0.420  0.0000E+00  0.6000E+02
   0.430  0.0000E+00  0.6000E+02
   0.440  0.0000E+00  0.6000E+02
   0.450  0.0000E+00  0.6000E+02
   0.460  0.0000E+00  0.6000E+02
   0.470  0.0000E+00  0.6000E+02
   0.480  0.0000E+00  0.6000E+02
   0.490  0.0000E+00  0.6000E+02
   0.500  0.0000E+00  0.6000E+02
   0.510  0.0000E+00  0.6000E+02
   0.520  0.0000E+00  0.6000E+02
   0.530  0.0000E+00  0.6000E+02
   0.540  0.0000E+00  0.6000E+02
   0.550  0.0000E+00  0.6000E+02
   0.560  0.0000E+00  0.6000E+02
   0.570  0.0000E+00  0.6000E+02
   0.580  0.0000E+00  0.6000E+02
   0.590  0.0000E+00  0.6000E+02
   0.600  0.0000E+00  0.6000E+02
   0.610  0.0000E+00  0.6000E+02
   0.620  0.0000E+00  0.6000E+02
   0.630  0.0000E+00  0.6000E+02
   0.640  0.0000E+00  0.6000E+02
   0.650  0.0000E+00  0.6000E+02
   0.660  0.0000E+00  0.6000E+02
   0.670  0.0000E+00  0.6000E+02
   0.680  0.0000E+00  0.6000E+02
   0.690  0.0000E+00  0.6000E+02
   0.700  0.0000E+00  0.6000E+02
   0.710  0.0000E+00  0.6000E+02
   0.720  0.0000E+00  0.6000E+02
   0.730  0.0000E+00  0.6000E+02
   0.740  0.0000E+00  0.6000E+02
   0.750  0.0000E+00  0.6000E+02
   0.760  0.0000E+00  0.6000E+02
   0.770  0.0000E+00  0.6000E+02
   0.780  0.0000E+00  0.6000E+02
   0.790  0.0000E+00  0.6000E+02
   0.800  0.0000E+00  0.6000E+02
   0.810  0.0000E+00  0.6000E+02
   0.820  0.0000E+00  0.6000E+02
   0.830  0.0000E+00  0.6000E+02
   0.840  0.0000E+00  0.6000E+02
   0.850  0.0000E+00  0.6000E+02
   0.860  0.0000E+00  0.6000E+02
   0.870  0.0000E+00  0.6000E+02
   0.880  0.0000E+00  0.6000E+02
   0.890  0.0000E+00  0.6000E+02
   0.900  0.0000E+00  0.6000E+02
   0.910  0.0000E+00  0.6000E+02
   0.920  0.0000E+00  0.6000E+02
   0.930  0.0000E+00  0.6000E+02
   0.940  0.0000E+00  0.6000E+02
   0.950  0.0000E+00  0.6000E+02
   0.960  0.0000E+00  0.6000E+02
   0.970  0.0000E+00  0.6000E+02
   0.980  0.0000E+00  0.6000E+02
   0.990  0.0000E+00  0.6000E+02
   1.000  0.0000E+00  0.6000E+02
   1.010  0.0000E+00  0.6000E+02
   1.020  0.0000E+00  0.6000E+02
   1.030  0.0000E+00  0.6000E+02
   1.040  0.0000E+00  0.6000E+02
   1.050  0.0000E+00  0.6000E+02
   1.060  0.0000E+00  0.6000E+02
   1.070  0.0000E+00  0.6000E+02
   1.080  0.0000E+00  0.6000E+02
   1.090  0.0000E+00  0.6000E+02
   1.100  0.0000E+00  0.6000E+02
   1.110  0.0000E+00  0.6000E+02
   1.120  0.0000E+00  0.6000E+02
   1.130  0.0000E+00  0.6000E+02
   1.140  0.0000E+00  0.6000E+02
   1.150  0.0000E+00  0.6000E+02
   1.160  0.0000E+00  0.6000E+02
   1.170  0.0000E+00  0.6000E+02
   1.180  0.0000E+00  0.6000E+02
   1.190  0.0000E+00  0.6000E+02
   1.200  0.0000E+00  0.6000E+02
   1.210  0.0000E+00  0.6000E+02
   1.220  0.0000E+00  0.6000E+02
   1.230  0.0000E+00  0.6000E+02
   1.240  0.0000E+00  0.6000E+02
   1.250  0.0000E+00  0.6000E+02
   1.260  0.0000E+00  0.6000E+02
   1.270  0.0000E+00  0.6000E+02
   1.280  0.0000E+00  0.6000E+02
   1.290  0.0000E+00  0.6000E+02
   1.300  0.0000E+00  0.6000E+02
   1.310  0.0000E+00  0.6000E+02
   1.320  0.0000E+00  0.6000E+02
   1.330  0.0000E+00  0.6000E+02
   1.340  0.0000E+00  0.6000E+02
   1.350  0.0000E+00  0.6000E+02
   1.360  0.0000E+00  0.6000E+02
   1.370  0.0000E+00  0.6000E+02
   1.380  0.0000E+00  0.6000E+02
   1.390  0.0000E+00  0.6000E+02
   1.400  0.0000E+00  0.6000E+02
   1.410  0.0000E+00  0.6000E+02
   1.420  0.0000E+00  0.6000E+02
   1.430  0.0000E+00  0.6000E+02
   1.440  0.0000E+00  0.6000E+02
   1.450  0.0000E+00  0.6000E+02
   1.460  0.0000E+00  0.6000E+02
   1.470  0.0000E+00  0.6000E+02
   1.480  0.0000E+00  0.6000E+02
   1.490  0.0000E+00  0.6000E+02
   1.500  0.0000E+00  0.6000E+02
   1.510  0.0000E+00  0.6000E+02
   1.520  0.0000E+00  0.6000E+02
   1.530  0.0000E+00  0.6000E+02
   1.540  0.0000E+00  0.6000E+02
   1.550  0.0000E+00  0.6000E+02
   1.560  0.0000E+00  0.6000E+02
   1.570  0.0000E+00  0.6000E+02
   1.580  0.0000E+00  0.6000E+02
   1.590  0.0000E+00  0.6000E+02
   1.600  0.0000E+00  0.6000E+02
   1.610  0.0000E+00  0.6000E+02
   1.620  0.0000E+00  0.6000E+02
   1.630  0.0000E+00  0.6000E+02
   1.640  0.0000E+00  0.6000E+02
   1.650  0.0000E+00  0.6000E+02
   1.660  0.0000E+00  0.6000E+02
   1.670  0.0000E+00  0.6000E+02
   1.680  0.0000E+00  0.6000E+02
   1.690  0.0000E+00  0.6000E+02
   1.700  0.0000E+00  0.6000E+02
   1.710  0.0000E+00  0.6000E+02
   1.720  0.0000E+00  0.6000E+02
   1.730  0.0000E+00  0.6000E+02
   1.740  0.0000E+00  0.6000E+02
   1.750  0.0000E+00  0.6000E+02
   1.760  0.0000E+00  0.6000E+02
   1.770  0.0000E+00  0.6000E+02
   1.780  0.0000E+00  0.6000E+02
   1.790  0.0000E+00  0.6000E+02
   1.800  0.0000E+00  0.6000E+02
   1.810  0.0000E+00  0.6000E+02
   1.820  0.0000E+00  0.6000E+02
   1.830  0.0000E+00  0.6000E+02
   1.840  0.0000E+00  0.6000E+02
   1.850  0.0000E+00  0.6000E+02
   1.860  0.0000E+00  0.6000E+02
   1.870  0.0000E+00  0.6000E+02
   1.880  0.0000E+00  0.6000E+02
   1.890  0.0000E+00  0.6000E+02
   1.900  0.0000E+00  0.6000E+02
   1.910  0.0000E+00  0.6000E+02
   1.920  0.0000E+00  0.6000E+02
   1.930  0.0000E+00  0.6000E+02
   1.940  0.0000E+00  0.6000E+02
   1.950  0.0000E+00  0.6000E+02
   1.960  0.0000E+00  0.6000E+02
   1.970  0.0000E+00  0.6000E+02
   1.980  0.0000E+00  0.6000E+02
   1.990  0.0000E+00  0.6000E+02
   2.000  0.0000E+00  0.6000E+02
   2.010  0.0000E+00  0.6000E+02
   2.020  0.0000E+00  0.6000E+02
   2.030  0.0000E+00  0.6000E+02
   2.040  0.0000E+00  0.6000E+02
   2.050  0.0000E+00  0.6000E+02
   2.060  0.0000E+00  0.6000E+02
   2.070  0.0000E+00  0.6000E+02
   2.080  0.0000E+00  0.6000E+02
   2.090  0.0000E+00  0.6000E+02
   2.100  0.0000E+00  0.6000E+02
   2.110  0.0000E+00  0.6000E+02
   2.120  0.0000E+00  0.6000E+02
   2.130  0.0000E+00  0.6000E+02
   2.140  0.0000E+00  0.6000E+02
   2.150  0.0000E+00  0.6000E+02
   2.160  0.0000E+00  0.6000E+02
   2.170  0.0000E+00  0.6000E+02
   2.180  0.0000E+00  0.6000E+02
   2.190  0.0000E+00  0.6000E+02
   2.200  0.0000E+00  0.6000E+02
   2.210  0.0000E+00  0.6000E+02
   2.220  0.0000E+00  0.6000E+02
   2.230  0.0000E+00  0.6000E+02
   2.240  0.0000E+00  0.6000E+02
   2.250  0.0000E+00  0.6000E+02
   2.260  0.0000E+00  0.6000E+02
   2.270  0.0000E+00  0.6000E+02
   2.280  0.0000E+00  0.6000E+02
   2.290  0.0000E+00  0.6000E+02
   2.300  0.0000E+00  0.6000E+02
   2.310  0.0000E+00  0.6000E+02
   2.320  0.0000E+00  0.6000E+02
   2.330  0.0000E+00  0.6000E+02
   2.340  0.0000E+00  0.6000E+02
   2.350  0.0000E+00  0.6000E+02
   2.360  0.0000E+00  0.6000E+02
   2.370  0.0000E+00  0.6000E+02
   2.380  0.0000E+00  0.6000E+02
   2.390  0.0000E+00  0.6000E+02
   2.400  0.0000E+00  0.6000E+02
   2.410  0.0000E+00  0.6000E+02
   2.420  0.0000E+00  0.6000E+02
   2.430  0.0000E+00  0.6000E+02
   2.440  0.0000E+00  0.6000E+02
   2.450  0.0000E+00  0.6000E+02
   2.460  0.0000E+00  0.6000E+02
   2.470  0.0000E+00  0.6000E+02
   2.480  0.0000E+00  0.6000E+02
   2.490  0.0000E+00  0.6000E+02
   2.500  0.0000E+00  0.6000E+02
   2.510  0.0000E+00  0.6000E+02
   2.520  0.0000E+00  0.6000E+02
   2.530  0.0000E+00  0.6000E+02
   2.540  0.0000E+00  0.6000E+02
   2.550  0.0000E+00  0.6000E+02
   2.560  0.0000E+00  0.6000E+02
   2.570  0.0000E+00  0.6000E+02
   2.580  0.0000E+00  0.6000E+02
   2.590  0.0000E+00  0.6000E+02
   2.600  0.0000E+00  0.6000E+02
   2.610  0.0000E+00  0.6000E+02
   2.620  0.0000E+00  0.6000E+02
   2.630  0.0000E+00  0.6000E+02
   2.640  0.0000E+00  0.6000E+02
   2.650  0.0000E+00  0.6000E+02
   2.660  0.0000E+00  0.6000E+02
   2.670  0.0000E+00  0.6000E+02
   2.680  0.0000E+00  0.6000E+02
   2.690  0.0000E+00  0.6000E+02
   2.700  0.0000E+00  0.6000E+02
   2.710  0.0000E+00  0.6000E+02
   2.720  0.0000E+00  0.6000E+02
   2.730  0.0000E+00  0.6000E+02
   2.740  0.0000E+00  0.6000E+02
   2.750  0.0000E+00  0.6000E+02
   2.760  0.0000E+00  0.6000E+02
   2.770  0.0000E+00  0.6000E+02
   2.780  0.0000E+00  0.6000E+02
   2.790  0.0000E+00  0.6000E+02
   2.800  0.0000E+00  0.6000E+02
   2.810  0.0000E+00  0.6000E+02
   2.820  0.0000E+00  0.6000E+02
   2.830  0.0000E+00  0.6000E+02
   2.840  0.0000E+00  0.6000E+02
   2.850  0.0000E+00  0.6000E+02
   2.860  0.0000E+00  0.6000E+02
   2.870  0.0000E+00  0.6000E+02
   2.880  0.0000E+00  0.6000E+02
   2.890  0.0000E+00  0.6000E+02
   2.900  0.0000E+00  0.6000E+02
   2.910  0.0000E+00  0.6000E+02
   2.920  0.0000E+00  0.6000E+02
   2.930  0.0000E+00  0.6000E+02
   2.940  0.0000E+00  0.6000E+02
   2.950  0.0000E+00  0.6000E+02
   2.960  0.0000E+00  0.6000E+02
   2.970  0.0000E+00  0.6000E+02
   2.980  0.0000E+00  0.6000E+02
   2.990  0.0000E+00  0.6000E+02
   3.000  0.0000E+00  0.6000E+02
   3.010  0.0000E+00  0.6000E+02
   3.020  0.0000E+00  0.6000E+02
   3.030  0.0000E+00  0.6000E+02
   3.040  0.0000E+00  0.6000E+02
   3.050  0.0000E+00  0.6000E+02
   3.060  0.0000E+00  0.6000E+02
   3.070  0.0000E+00  0.6000E+02
   3.080  0.0000E+00  0.6000E+02
   3.090  0.0000E+00  0.6000E+02
   3.100  0.0000E+00  0.6000E+02
   3.110  0.0000E+00  0.6000E+02
   3.120  0.0000E+00  0.6000E+02
   3.130  0.0000E+00  0.6000E+02
   3.140  0.0000E+00  0.6000E+02
   3.150  0.0000E+00  0.6000E+02
   3.160  0.0000E+00  0.6000E+02
   3.170  0.0000E+00  0.6000E+02
   3.180  0.0000E+00  0.6000E+02
   3.190  0.0000E+00  0.6000E+02
   3.200  0.0000E+00  0.6000E+02
   3.210  0.0000E+00  0.6000E+02
   3.220  0.0000E+00  0.6000E+02
   3.230  0.0000E+00  0.6000E+02
   3.240  0.0000E+00  0.6000E+02
   3.250  0.0000E+00  0.6000E+02
   3.260  0.0000E+00  0.6000E+02
   3.270  0.0000E+00  0.6000E+02
   3.280  0.0000E+00  0.6000E+02
   3.290  0.0000E+00  0.6000E+02
   3.300  0.0000E+00  0.6000E+02
   3.310  0.0000E+00  0.6000E+02
   3.320  0.0000E+00  0.6000E+02
   3.330  0.0000E+00  0.6000E+02
   3.340  0.0000E+00  0.6000E+02
   3.350  0.0000E+00  0.6000E+02
   3.360  0.0000E+00  0.6000E+02
   3.370  0.0000E+00  0.6000E+02
   3.380  0.0000E+00  0.6000E+02
   3.390  0.0000E+00  0.6000E+02
   3.400  0.0000E+00  0.6000E+02
   3.410  0.0000E+00  0.6000E+02
   3.420  0.0000E+00  0.6000E+02
   3.430  0.0000E+00  0.6000E+02
   3.440  0.0000E+00  0.6000E+02
   3.450  0.0000E+00  0.6000E+02
   3.460  0.0000E+00  0.6000E+02
   3.470  0.0000E+00  0.6000E+02
   3.480  0.0000E+00  0.6000E+02
   3.490  0.0000E+00  0.6000E+02
   3.500  0.0000E+00  0.6000E+02
   3.510  0.0000E+00  0.6000E+02
   3.520  0.0000E+00  0.6000E+02
   3.530  0.0000E+00  0.6000E+02
   3.540  0.0000E+00  0.6000E+02
   3.550  0.0000E+00  0.6000E+02
   3.560  0.0000E+00  0.6000E+02
   3.570  0.0000E+00  0.6000E+02
   3.580  0.0000E+00  0.6000E+02
   3.590  0.0000E+00  0.6000E+02
   3.600  0.0000E+00  0.6000E+02
   3.610  0.0000E+00  0.6000E+02
   3.620  0.0000E+00  0.6000E+02
   3.630  0.0000E+00  0.6000E+02
   3.640  0.0000E+00  0.6000E+02
   3.650  0.1291E+01  0.6001E+02
   3.660  0.1023E+01  0.6002E+02
   3.670  0.1441E+01  0.6003E+02
   3.680  0.3969E+00  0.6004E+02
   3.690  0.4082E+00  0.6004E+02
   3.700  0.4195E+00  0.6005E+02
   3.710  0.4308E+00  0.6005E+02
   3.720  0.4421E+00  0.6006E+02
   3.730  0.4533E+00  0.6006E+02
   3.740  0.4646E+00  0.6007E+02
   3.750  0.4759E+00  0.6007E+02
   3.760  0.4872E+00  0.6007E+02
   3.770  0.4985E+00  0.6008E+02
   3.780  0.5097E+00  0.6008E+02
   3.790  0.5210E+00  0.6009E+02
   3.800  0.5323E+00  0.6010E+02
   3.810  0.5436E+00  0.6010E+02
   3.820  0.5549E+00  0.6011E+02
   3.830  0.5661E+00  0.6011E+02
   3.840  0.5774E+00  0.6012E+02
   3.850  0.5887E+00  0.6012E+02
   3.860  0.6000E+00  0.6013E+02
   3.870  0.6113E+00  0.6014E+02
   3.880  0.6225E+00  0.6014E+02
   3.890  0.6338E+00  0.6015E+02
   3.900  0.6451E+00  0.6015E+02
   3.910  0.6564E+00  0.6016E+02
   3.920  0.6676E+00  0.6017E+02
   3.930  0.6789E+00  0.6017E+02
   3.940  0.6902E+00  0.6018E+02
   3.950  0.7015E+00  0.6019E+02
   3.960  0.7128E+00  0.6019E+02
   3.970  0.7240E+00  0.6020E+02
   3.980  0.7260E+00  0.6021E+02
   3.990  0.7060E+00  0.6022E+02
   4.000  0.6937E+00  0.6022E+02
   4.010  0.6736E+00  0.6023E+02
   4.020  0.6712E+00  0.6024E+02
   4.030  0.6761E+00  0.6024E+02
   4.040  0.6810E+00  0.6025E+02
   4.050  0.6858E+00  0.6026E+02
   4.060  0.6907E+00  0.6026E+02
   4.070  0.6956E+00  0.6027E+02
   4.080  0.7004E+00  0.6028E+02
   4.090  0.7053E+00  0.6029E+02
   4.100  0.7102E+00  0.6029E+02
   4.110  0.7150E+00  0.6030E+02
   4.120  0.7199E+00  0.6031E+02
   4.130  0.7248E+00  0.6031E+02
   4.140  0.7296E+00  0.6032E+02
   4.150  0.7345E+00  0.6033E+02
   4.160  0.7394E+00  0.6034E+02
   4.170  0.7442E+00  0.6034E+02
   4.180  0.7491E+00  0.6035E+02
   4.190  0.7540E+00  0.6036E+02
   4.200  0.7588E+00  0.6037E+02
   4.210  0.1500E+01  0.6038E+02
   4.220  0.1607E+01  0.6039E+02
   4.230  0.1505E+01  0.6041E+02
   4.240  0.1813E+01  0.6042E+02
   4.250  0.1263E+01  0.6045E+02
   4.260  0.1284E+01  0.6046E+02
   4.270  0.1305E+01  0.6047E+02
   4.280  0.1326E+01  0.6048E+02
   4.290  0.1347E+01  0.6050E+02
   4.300  0.1368E+01  0.6051E+02
   4.310  0.1390E+01  0.6053E+02
   4.320  0.1412E+01  0.6054E+02
   4.330  0.1435E+01  0.6055E+02
   4.340  0.1458E+01  0.6057E+02
   4.350  0.1481E+01  0.6058E+02
   4.360  0.1504E+01  0.6060E+02
   4.370  0.1527E+01  0.6061E+02
   4.380  0.1550E+01  0.6063E+02
   4.390  0.1573E+01  0.6064E+02
   4.400  0.1596E+01  0.6066E+02
   4.410  0.1619E+01  0.6068E+02
   4.420  0.1642E+01  0.6069E+02
   4.430  0.1665E+01  0.6071E+02
   4.440  0.1706E+01  0.6073E+02
   4.450  0.1767E+01  0.6074E+02
   4.460  0.1828E+01  0.6076E+02
   4.470  0.1889E+01  0.6078E+02
   4.480  0.1957E+01  0.6080E+02
   4.490  0.2005E+01  0.6082E+02
   4.500  0.2035E+01  0.6084E+02
   4.510  0.2065E+01  0.6086E+02
   4.520  0.2095E+01  0.6088E+02
   4.530  0.2124E+01  0.6090E+02
   4.540  0.2154E+01  0.6092E+02
   4.550  0.2186E+01  0.6094E+02
   4.560  0.2219E+01  0.6097E+02
   4.570  0.2252E+01  0.6099E+02
   4.580  0.2284E+01  0.6101E+02
   4.590  0.2317E+01  0.6103E+02
   4.600  0.2350E+01  0.6106E+02
   4.610  0.2383E+01  0.6108E+02
   4.620  0.2415E+01  0.6110E+02
   4.630  0.2448E+01  0.6113E+02
   4.640  0.2481E+01  0.6115E+02
   4.650  0.2513E+01  0.6118E+02
   4.660  0.2546E+01  0.6120E+02
   4.670  0.2579E+01  0.6123E+02
   4.680  0.2611E+01  0.6126E+02
   4.690  0.2644E+01  0.6128E+02
   4.700  0.2677E+01  0.6131E+02
   4.710  0.2709E+01  0.6134E+02
   4.720  0.3546E+01  0.6137E+02
   4.730  0.3272E+01  0.6140E+02
   4.740  0.4114E+01  0.6145E+02
   4.750  0.3909E+01  0.6149E+02
   4.760  0.3437E+01  0.6153E+02
   4.770  0.2865E+01  0.6157E+02
   4.780  0.2953E+01  0.6160E+02
   4.790  0.3049E+01  0.6163E+02
   4.800  0.3145E+01  0.6166E+02
   4.810  0.3247E+01  0.6169E+02
   4.820  0.3368E+01  0.6172E+02
   4.830  0.3498E+01  0.6176E+02
   4.840  0.3634E+01  0.6179E+02
   4.850  0.3679E+01  0.6183E+02
   4.860  0.3723E+01  0.6186E+02
   4.870  0.3767E+01  0.6190E+02
   4.880  0.3812E+01  0.6194E+02
   4.890  0.3856E+01  0.6198E+02
   4.900  0.4380E+01  0.6202E+02
   4.910  0.4285E+01  0.6207E+02
   4.920  0.4753E+01  0.6212E+02
   4.930  0.4859E+01  0.6217E+02
   4.940  0.3992E+01  0.6221E+02
   4.950  0.4196E+01  0.6226E+02
   4.960  0.3361E+01  0.6230E+02
   4.970  0.3328E+01  0.6233E+02
   4.980  0.3294E+01  0.6236E+02
   4.990  0.3248E+01  0.6240E+02
   5.000  0.3191E+01  0.6243E+02
   5.010  0.3147E+01  0.6246E+02
   5.020  0.3108E+01  0.6249E+02
   5.030  0.3071E+01  0.6252E+02
   5.040  0.3035E+01  0.6255E+02
   5.050  0.2995E+01  0.6258E+02
   5.060  0.2960E+01  0.6261E+02
   5.070  0.2931E+01  0.6264E+02
   5.080  0.2901E+01  0.6267E+02
   5.090  0.2869E+01  0.6270E+02
   5.100  0.2834E+01  0.6273E+02
   5.110  0.2797E+01  0.6276E+02
   5.120  0.2758E+01  0.6279E+02
   5.130  0.2721E+01  0.6281E+02
   5.140  0.2672E+01  0.6284E+02
   5.150  0.2629E+01  0.6287E+02
   5.160  0.2569E+01  0.6289E+02
   5.170  0.2523E+01  0.6292E+02
   5.180  0.2480E+01  0.6294E+02
   5.190  0.2439E+01  0.6297E+02
   5.200  0.2398E+01  0.6299E+02
   5.210  0.2361E+01  0.6302E+02
   5.220  0.2333E+01  0.6304E+02
   5.230  0.2317E+01  0.6306E+02
   5.240  0.2303E+01  0.6309E+02
   5.250  0.2288E+01  0.6311E+02
   5.260  0.2274E+01  0.6313E+02
   5.270  0.2260E+01  0.6315E+02
   5.280  0.3444E+01  0.6319E+02
   5.290  0.3243E+01  0.6322E+02
   5.300  0.3665E+01  0.6325E+02
   5.310  0.2765E+01  0.6329E+02
   5.320  0.2776E+01  0.6331E+02
   5.330  0.2790E+01  0.6334E+02
   5.340  0.2804E+01  0.6337E+02
   5.350  0.2861E+01  0.6340E+02
   5.360  0.2996E+01  0.6343E+02
   5.370  0.3073E+01  0.6346E+02
   5.380  0.3133E+01  0.6349E+02
   5.390  0.3194E+01  0.6352E+02
   5.400  0.3260E+01  0.6355E+02
   5.410  0.3361E+01  0.6359E+02
   5.420  0.3378E+01  0.6362E+02
   5.430  0.3346E+01  0.6365E+02
   5.440  0.3317E+01  0.6369E+02
   5.450  0.3292E+01  0.6372E+02
   5.460  0.3268E+01  0.6375E+02
   5.470  0.4644E+01  0.6383E+02
   5.480  0.4757E+01  0.6387E+02
   5.490  0.4870E+01  0.6392E+02
   5.500  0.4983E+01  0.6397E+02
   5.510  0.5976E+01  0.6403E+02
   5.520  0.7187E+01  0.6413E+02
   5.530  0.8458E+01  0.6421E+02
   5.540  0.8656E+01  0.6429E+02
   5.550  0.1063E+02  0.6439E+02
   5.560  0.1105E+02  0.6450E+02
   5.570  0.1157E+02  0.6461E+02
   5.580  0.3135E+02  0.6492E+02
   5.590  0.1806E+02  0.6513E+02
   5.600  0.1775E+02  0.6531E+02
   5.610  0.1750E+02  0.6548E+02
   5.620  0.1494E+02  0.6565E+02
   5.630  0.1312E+02  0.6579E+02
   5.640  0.1032E+02  0.6590E+02
   5.650  0.1799E+02  0.6601E+02
   5.660  0.1479E+02  0.6617E+02
   5.670  0.1397E+02  0.6633E+02
   5.680  0.1299E+02  0.6646E+02
   5.690  0.1155E+02  0.6659E+02
   5.700  0.1088E+02  0.6669E+02
   5.710  0.1034E+02  0.6680E+02
   5.720  0.9998E+01  0.6690E+02
   5.730  0.9813E+01  0.6700E+02
   5.740  0.1023E+02  0.6711E+02
   5.750  0.9627E+01  0.6721E+02
   5.760  0.8527E+01  0.6731E+02
   5.770  0.8235E+01  0.6739E+02
   5.780  0.7942E+01  0.6747E+02
   5.790  0.5904E+01  0.6757E+02
   5.800  0.7766E+01  0.6764E+02
   5.810  0.8700E+01  0.6773E+02
   5.820  0.7780E+01  0.6781E+02
   5.830  0.8097E+01  0.6789E+02
   5.840  0.8876E+01  0.6797E+02
   5.850  0.9873E+01  0.6806E+02
   5.860  0.2007E+02  0.6820E+02
   5.870  0.1274E+02  0.6834E+02
   5.880  0.1036E+02  0.6846E+02
   5.890  0.9468E+01  0.6856E+02
   5.900  0.8698E+01  0.6865E+02
   5.910  0.8255E+01  0.6873E+02
   5.920  0.7096E+01  0.6881E+02
   5.930  0.7057E+01  0.6888E+02
   5.940  0.7019E+01  0.6895E+02
   5.950  0.8473E+01  0.6903E+02
   5.960  0.8846E+01  0.6912E+02
   5.970  0.9997E+01  0.6921E+02
   5.980  0.9646E+01  0.6931E+02
   5.990  0.9962E+01  0.6941E+02
   6.000  0.1032E+02  0.6951E+02
   6.010  0.1019E+02  0.6962E+02
   6.020  0.1097E+02  0.6972E+02
   6.030  0.1021E+02  0.6983E+02
   6.040  0.1005E+02  0.6993E+02
   6.050  0.1025E+02  0.7003E+02
   6.060  0.2460E+02  0.7019E+02
   6.070  0.1245E+02  0.7046E+02
   6.080  0.1548E+02  0.7062E+02
   6.090  0.1373E+02  0.7078E+02
   6.100  0.1424E+02  0.7092E+02
   6.110  0.1510E+02  0.7107E+02
   6.120  0.1857E+02  0.7124E+02
   6.130  0.1657E+02  0.7142E+02
   6.140  0.1396E+02  0.7157E+02
   6.150  0.1351E+02  0.7170E+02
   6.160  0.1303E+02  0.7184E+02
   6.170  0.1255E+02  0.7196E+02
   6.180  0.1207E+02  0.7209E+02
   6.190  0.1212E+02  0.7222E+02
   6.200  0.8597E+01  0.7239E+02
   6.210  0.6902E+01  0.7247E+02
   6.220  0.4495E+01  0.7253E+02
   6.230  0.3622E+01  0.7257E+02
   6.240  0.2395E+01  0.7260E+02
   6.250  0.1602E+01  0.7262E+02
   6.260  0.1363E+01  0.7264E+02
   6.270  0.1362E+01  0.7265E+02
   6.280  0.1361E+01  0.7266E+02
   6.290  0.1360E+01  0.7268E+02
   6.300  0.1359E+01  0.7269E+02
   6.310  0.1358E+01  0.7270E+02
   6.320  0.1357E+01  0.7272E+02
   6.330  0.1847E+01  0.7273E+02
   6.340  0.2373E+01  0.7276E+02
   6.350  0.2551E+01  0.7278E+02
   6.360  0.2730E+01  0.7281E+02
   6.370  0.2909E+01  0.7283E+02
   6.380  0.3088E+01  0.7286E+02
   6.390  0.3267E+01  0.7290E+02
   6.400  0.3446E+01  0.7293E+02
   6.410  0.3625E+01  0.7297E+02
   6.420  0.3798E+01  0.7300E+02
   6.430  0.3977E+01  0.7304E+02
   6.440  0.4521E+01  0.7308E+02
   6.450  0.4969E+01  0.7313E+02
   6.460  0.4977E+01  0.7318E+02
   6.470  0.4986E+01  0.7323E+02
   6.480  0.4994E+01  0.7328E+02
   6.490  0.5002E+01  0.7333E+02
   6.500  0.5011E+01  0.7338E+02
   6.510  0.5019E+01  0.7343E+02
   6.520  0.5028E+01  0.7348E+02
   6.530  0.5037E+01  0.7353E+02
   6.540  0.5075E+01  0.7358E+02
   6.550  0.5158E+01  0.7363E+02
   6.560  0.5240E+01  0.7369E+02
   6.570  0.5324E+01  0.7374E+02
   6.580  0.5979E+01  0.7380E+02
   6.590  0.5984E+01  0.7386E+02
   6.600  0.5968E+01  0.7392E+02
   6.610  0.5955E+01  0.7398E+02
   6.620  0.5818E+01  0.7404E+02
   6.630  0.5770E+01  0.7410E+02
   6.640  0.5718E+01  0.7416E+02
   6.650  0.5663E+01  0.7421E+02
   6.660  0.5503E+01  0.7427E+02
   6.670  0.6471E+01  0.7434E+02
   6.680  0.6624E+01  0.7440E+02
   6.690  0.9453E+01  0.7449E+02
   6.700  0.7027E+01  0.7457E+02
   6.710  0.7189E+01  0.7465E+02
   6.720  0.6439E+01  0.7472E+02
   6.730  0.5612E+01  0.7481E+02
   6.740  0.5607E+01  0.7487E+02
   6.750  0.5784E+01  0.7493E+02
   6.760  0.7392E+01  0.7502E+02
   6.770  0.7842E+01  0.7510E+02
   6.780  0.8314E+01  0.7518E+02
   6.790  0.9120E+01  0.7527E+02
   6.800  0.9982E+01  0.7536E+02
   6.810  0.1101E+02  0.7547E+02
   6.820  0.1440E+02  0.7561E+02
   6.830  0.1957E+02  0.7577E+02
   6.840  0.2267E+02  0.7600E+02
   6.850  0.2118E+02  0.7622E+02
   6.860  0.1735E+02  0.7642E+02
   6.870  0.1246E+02  0.7656E+02
   6.880  0.1238E+02  0.7668E+02
   6.890  0.2205E+02  0.7684E+02
   6.900  0.2660E+02  0.7711E+02
   6.910  0.2759E+02  0.7738E+02
   6.920  0.2484E+02  0.7765E+02
   6.930  0.2486E+02  0.7790E+02
   6.940  0.2288E+02  0.7814E+02
   6.950  0.2220E+02  0.7836E+02
   6.960  0.2045E+02  0.7859E+02
   6.970  0.1810E+02  0.7881E+02
   6.980  0.1839E+02  0.7900E+02
   6.990  0.1391E+02  0.7920E+02
   7.000  0.1399E+02  0.7934E+02
   7.010  0.1352E+02  0.7948E+02
   7.020  0.1354E+02  0.7962E+02
   7.030  0.1307E+02  0.7975E+02
   7.040  0.1276E+02  0.7988E+02
   7.050  0.1194E+02  0.8000E+02
   7.060  0.1025E+02  0.8011E+02
   7.070  0.9309E+01  0.8021E+02
   7.080  0.9970E+01  0.8032E+02
   7.090  0.1101E+02  0.8043E+02
   7.100  0.1196E+02  0.8055E+02
   7.110  0.1520E+02  0.8068E+02
   7.120  0.2233E+02  0.8089E+02
   7.130  0.1636E+02  0.8107E+02
   7.140  0.1570E+02  0.8124E+02
   7.150  0.1349E+02  0.8138E+02
   7.160  0.1120E+02  0.8151E+02
   7.170  0.1114E+02  0.8163E+02
   7.180  0.1147E+02  0.8174E+02
   7.190  0.1182E+02  0.8186E+02
   7.200  0.1187E+02  0.8198E+02
   7.210  0.1224E+02  0.8210E+02
   7.220  0.1262E+02  0.8222E+02
   7.230  0.1300E+02  0.8235E+02
   7.240  0.1310E+02  0.8248E+02
   7.250  0.1344E+02  0.8261E+02
   7.260  0.1376E+02  0.8275E+02
   7.270  0.1181E+02  0.8287E+02
   7.280  0.1085E+02  0.8298E+02
   7.290  0.1112E+02  0.8309E+02
   7.300  0.1101E+02  0.8320E+02
   7.310  0.1106E+02  0.8331E+02
   7.320  0.1145E+02  0.8343E+02
   7.330  0.1342E+02  0.8356E+02
   7.340  0.1171E+02  0.8369E+02
   7.350  0.1337E+02  0.8382E+02
   7.360  0.1467E+02  0.8396E+02
   7.370  0.1621E+02  0.8411E+02
   7.380  0.1872E+02  0.8428E+02
   7.390  0.1893E+02  0.8447E+02
   7.400  0.1488E+02  0.8468E+02
   7.410  0.1364E+02  0.8485E+02
   7.420  0.1318E+02  0.8498E+02
   7.430  0.1210E+02  0.8511E+02
   7.440  0.7918E+01  0.8524E+02
   7.450  0.7348E+01  0.8532E+02
   7.460  0.6867E+01  0.8539E+02
   7.470  0.6588E+01  0.8546E+02
   7.480  0.6282E+01  0.8553E+02
   7.490  0.5987E+01  0.8559E+02
   7.500  0.5856E+01  0.8565E+02
   7.510  0.5684E+01  0.8571E+02
   7.520  0.5537E+01  0.8576E+02
   7.530  0.5428E+01  0.8582E+02
   7.540  0.5306E+01  0.8587E+02
   7.550  0.7710E+01  0.8594E+02
   7.560  0.1791E+02  0.8606E+02
   7.570  0.8836E+01  0.8615E+02
   7.580  0.8647E+01  0.8624E+02
   7.590  0.8537E+01  0.8633E+02
   7.600  0.9818E+01  0.8643E+02
   7.610  0.9237E+01  0.8653E+02
   7.620  0.9908E+01  0.8662E+02
   7.630  0.8101E+01  0.8671E+02
   7.640  0.7837E+01  0.8679E+02
   7.650  0.7570E+01  0.8687E+02
   7.660  0.7339E+01  0.8694E+02
   7.670  0.7188E+01  0.8701E+02
   7.680  0.6963E+01  0.8708E+02
   7.690  0.6596E+01  0.8715E+02
   7.700  0.6081E+01  0.8722E+02
   7.710  0.5527E+01  0.8728E+02
   7.720  0.5395E+01  0.8733E+02
   7.730  0.5629E+01  0.8740E+02
   7.740  0.5542E+01  0.8745E+02
   7.750  0.5552E+01  0.8751E+02
   7.760  0.5594E+01  0.8756E+02
   7.770  0.5794E+01  0.8762E+02
   7.780  0.6173E+01  0.8768E+02
   7.790  0.6723E+01  0.8774E+02
   7.800  0.6908E+01  0.8781E+02
   7.810  0.7058E+01  0.8788E+02
   7.820  0.7398E+01  0.8795E+02
   7.830  0.7661E+01  0.8803E+02
   7.840  0.9674E+01  0.8812E+02
   7.850  0.9083E+01  0.8823E+02
   7.860  0.9623E+01  0.8832E+02
   7.870  0.8896E+01  0.8841E+02
   7.880  0.9197E+01  0.8850E+02
   7.890  0.9323E+01  0.8859E+02
   7.900  0.1227E+02  0.8872E+02
   7.910  0.1239E+02  0.8884E+02
   7.920  0.1193E+02  0.8897E+02
   7.930  0.1160E+02  0.8909E+02
   7.940  0.1140E+02  0.8920E+02
   7.950  0.1124E+02  0.8932E+02
   7.960  0.1120E+02  0.8944E+02
   7.970  0.1135E+02  0.8955E+02
   7.980  0.1095E+02  0.8967E+02
   7.990  0.1081E+02  0.8977E+02
   8.000  0.1067E+02  0.8988E+02
   8.010  0.1049E+02  0.8999E+02
   8.020  0.1031E+02  0.9009E+02
   8.030  0.1017E+02  0.9019E+02
   8.040  0.8706E+01  0.9032E+02
   8.050  0.9572E+01  0.9041E+02
   8.060  0.9980E+01  0.9051E+02
   8.070  0.9962E+01  0.9061E+02
   8.080  0.1003E+02  0.9071E+02
   8.090  0.9972E+01  0.9081E+02
   8.100  0.9846E+01  0.9091E+02
   8.110  0.9955E+01  0.9101E+02
   8.120  0.1117E+02  0.9111E+02
   8.130  0.1257E+02  0.9123E+02
   8.140  0.1380E+02  0.9136E+02
   8.150  0.1540E+02  0.9152E+02
   8.160  0.1489E+02  0.9167E+02
   8.170  0.1469E+02  0.9182E+02
   8.180  0.1459E+02  0.9196E+02
   8.190  0.1435E+02  0.9211E+02
   8.200  0.1376E+02  0.9225E+02
   8.210  0.1382E+02  0.9239E+02
   8.220  0.1353E+02  0.9253E+02
   8.230  0.1327E+02  0.9267E+02
   8.240  0.1370E+02  0.9281E+02
   8.250  0.1425E+02  0.9295E+02
   8.260  0.1472E+02  0.9310E+02
   8.270  0.1512E+02  0.9326E+02
   8.280  0.1549E+02  0.9342E+02
   8.290  0.1582E+02  0.9357E+02
   8.300  0.1642E+02  0.9374E+02
   8.310  0.1625E+02  0.9391E+02
   8.320  0.1657E+02  0.9407E+02
   8.330  0.1693E+02  0.9424E+02
   8.340  0.1746E+02  0.9441E+02
   8.350  0.1837E+02  0.9459E+02
   8.360  0.1896E+02  0.9478E+02
   8.370  0.1779E+02  0.9497E+02
   8.380  0.1649E+02  0.9514E+02
   8.390  0.1699E+02  0.9532E+02
   8.400  0.1833E+02  0.9550E+02
   8.410  0.2015E+02  0.9571E+02
   8.420  0.1987E+02  0.9594E+02
   8.430  0.2630E+02  0.9616E+02
   8.440  0.1657E+02  0.9637E+02
   8.450  0.1744E+02  0.9653E+02
   8.460  0.1743E+02  0.9671E+02
   8.470  0.1840E+02  0.9689E+02
   8.480  0.1852E+02  0.9708E+02
   8.490  0.2285E+02  0.9728E+02
   8.500  0.5924E+02  0.9753E+02
   8.510  0.2231E+02  0.9779E+02
   8.520  0.2547E+02  0.9802E+02
   8.530  0.1841E+02  0.9824E+02
   8.540  0.1561E+02  0.9841E+02
   8.550  0.1209E+02  0.9855E+02
   8.560  0.9569E+01  0.9866E+02
   8.570  0.9194E+01  0.9875E+02
   8.580  0.8815E+01  0.9885E+02
   8.590  0.9763E+01  0.9894E+02
   8.600  0.2376E+02  0.9915E+02
   8.610  0.3439E+02  0.9945E+02
   8.620  0.5300E+02  0.9985E+02
   8.630  0.3192E+02  0.1003E+03
   8.640  0.1508E+02  0.1005E+03
   8.650  0.1581E+02  0.1007E+03
   8.660  0.2608E+02  0.1009E+03
   8.670  0.2834E+02  0.1012E+03
   8.680  0.2102E+02  0.1015E+03
   8.690  0.2223E+02  0.1017E+03
   8.700  0.2200E+02  0.1019E+03
   8.710  0.2335E+02  0.1021E+03
   8.720  0.2169E+02  0.1024E+03
   8.730  0.2117E+02  0.1026E+03
   8.740  0.2209E+02  0.1028E+03
   8.750  0.2075E+02  0.1030E+03
   8.760  0.1856E+02  0.1032E+03
   8.770  0.1714E+02  0.1034E+03
   8.780  0.1608E+02  0.1036E+03
   8.790  0.2937E+02  0.1037E+03
   8.800  0.1222E+02  0.1039E+03
   8.810  0.1317E+02  0.1040E+03
   8.820  0.1102E+02  0.1041E+03
   8.830  0.1076E+02  0.1042E+03
   8.840  0.1056E+02  0.1043E+03
   8.850  0.1078E+02  0.1044E+03
   8.860  0.1030E+02  0.1046E+03
   8.870  0.9761E+01  0.1047E+03
   8.880  0.9344E+01  0.1048E+03
   8.890  0.9151E+01  0.1049E+03
   8.900  0.8765E+01  0.1049E+03
   8.910  0.8400E+01  0.1050E+03
   8.920  0.9476E+01  0.1051E+03
   8.930  0.8861E+01  0.1052E+03
   8.940  0.9193E+01  0.1053E+03
   8.950  0.9539E+01  0.1054E+03
   8.960  0.1066E+02  0.1055E+03
   8.970  0.1083E+02  0.1056E+03
   8.980  0.1198E+02  0.1057E+03
   8.990  0.1224E+02  0.1059E+03
   9.000  0.1259E+02  0.1060E+03
   9.010  0.1280E+02  0.1061E+03
   9.020  0.1306E+02  0.1063E+03
   9.030  0.1340E+02  0.1064E+03
   9.040  0.1341E+02  0.1065E+03
   9.050  0.1208E+02  0.1066E+03
   9.060  0.1234E+02  0.1068E+03
   9.070  0.1240E+02  0.1069E+03
   9.080  0.1088E+02  0.1070E+03
   9.090  0.1082E+02  0.1071E+03
   9.100  0.1076E+02  0.1072E+03
   9.110  0.1069E+02  0.1073E+03
   9.120  0.1072E+02  0.1074E+03
   9.130  0.1071E+02  0.1076E+03
   9.140  0.1082E+02  0.1077E+03
   9.150  0.1096E+02  0.1078E+03
   9.160  0.1096E+02  0.1079E+03
   9.170  0.1103E+02  0.1080E+03
   9.180  0.1125E+02  0.1081E+03
   9.190  0.1248E+02  0.1082E+03
   9.200  0.1303E+02  0.1084E+03
   9.210  0.1372E+02  0.1085E+03
   9.220  0.1458E+02  0.1087E+03
   9.230  0.1667E+02  0.1088E+03
   9.240  0.1617E+02  0.1090E+03
   9.250  0.1648E+02  0.1092E+03
   9.260  0.1681E+02  0.1093E+03
   9.270  0.1727E+02  0.1095E+03
   9.280  0.1772E+02  0.1097E+03
   9.290  0.1811E+02  0.1099E+03
   9.300  0.1837E+02  0.1101E+03
   9.310  0.1824E+02  0.1103E+03
   9.320  0.1858E+02  0.1105E+03
   9.330  0.1801E+02  0.1107E+03
   9.340  0.1568E+02  0.1108E+03
   9.350  0.1517E+02  0.1110E+03
   9.360  0.1510E+02  0.1112E+03
   9.370  0.1465E+02  0.1113E+03
   9.380  0.1431E+02  0.1115E+03
   9.390  0.1402E+02  0.1116E+03
   9.400  0.1386E+02  0.1117E+03
   9.410  0.1342E+02  0.1119E+03
   9.420  0.1367E+02  0.1120E+03
   9.430  0.1461E+02  0.1122E+03
   9.440  0.1475E+02  0.1123E+03
   9.450  0.1495E+02  0.1125E+03
   9.460  0.1527E+02  0.1126E+03
   9.470  0.1526E+02  0.1128E+03
   9.480  0.1541E+02  0.1129E+03
   9.490  0.1604E+02  0.1131E+03
   9.500  0.1641E+02  0.1132E+03
   9.510  0.1671E+02  0.1134E+03
   9.520  0.1937E+02  0.1136E+03
   9.530  0.1904E+02  0.1138E+03
   9.540  0.2275E+02  0.1140E+03
   9.550  0.1763E+02  0.1142E+03
   9.560  0.1838E+02  0.1144E+03
   9.570  0.2038E+02  0.1146E+03
   9.580  0.2009E+02  0.1148E+03
   9.590  0.1974E+02  0.1150E+03
   9.600  0.1930E+02  0.1152E+03
   9.610  0.1792E+02  0.1154E+03
   9.620  0.1616E+02  0.1155E+03
   9.630  0.1255E+02  0.1157E+03
   9.640  0.1368E+02  0.1158E+03
   9.650  0.1389E+02  0.1160E+03
   9.660  0.1836E+02  0.1161E+03
   9.670  0.1325E+02  0.1163E+03
   9.680  0.1348E+02  0.1165E+03
   9.690  0.1161E+02  0.1166E+03
   9.700  0.1116E+02  0.1167E+03
   9.710  0.1080E+02  0.1169E+03
   9.720  0.1234E+02  0.1170E+03
   9.730  0.1659E+02  0.1171E+03
   9.740  0.1420E+02  0.1173E+03
   9.750  0.9076E+01  0.1174E+03
   9.760  0.9602E+01  0.1175E+03
   9.770  0.1337E+02  0.1176E+03
   9.780  0.1520E+02  0.1178E+03
   9.790  0.1672E+02  0.1179E+03
   9.800  0.1988E+02  0.1181E+03
   9.810  0.2056E+02  0.1183E+03
   9.820  0.2168E+02  0.1185E+03
   9.830  0.1984E+02  0.1187E+03
   9.840  0.2011E+02  0.1189E+03
   9.850  0.2288E+02  0.1191E+03
   9.860  0.1113E+02  0.1194E+03
   9.870  0.1017E+02  0.1195E+03
   9.880  0.8474E+01  0.1196E+03
   9.890  0.9572E+01  0.1196E+03
   9.900  0.1526E+02  0.1198E+03
   9.910  0.1682E+02  0.1199E+03
   9.920  0.1784E+02  0.1201E+03
   9.930  0.1464E+02  0.1203E+03
   9.940  0.1222E+02  0.1204E+03
   9.950  0.1051E+02  0.1205E+03
   9.960  0.9073E+01  0.1206E+03
   9.970  0.8094E+01  0.1207E+03
   9.980  0.6994E+01  0.1208E+03
   9.990  0.6634E+01  0.1209E+03
  10.000  0.6453E+01  0.1209E+03
  10.010  0.6271E+01  0.1210E+03
  10.020  0.6089E+01  0.1211E+03
  10.030  0.5908E+01  0.1211E+03
  10.040  0.5726E+01  0.1212E+03
  10.050  0.7979E+01  0.1212E+03
  10.060  0.9157E+01  0.1213E+03
  10.070  0.1018E+02  0.1214E+03
  10.080  0.9655E+01  0.1216E+03
  10.090  0.8686E+01  0.1217E+03
  10.100  0.7824E+01  0.1217E+03
  10.110  0.8966E+01  0.1218E+03
  10.120  0.8795E+01  0.1219E+03
  10.130  0.1050E+02  0.1220E+03
  10.140  0.1251E+02  0.1221E+03
  10.150  0.8810E+01  0.1223E+03
  10.160  0.1318E+02  0.1224E+03
  10.170  0.7332E+01  0.1225E+03
  10.180  0.5709E+01  0.1225E+03
  10.190  0.4741E+01  0.1226E+03
  10.200  0.4598E+01  0.1226E+03
  10.210  0.4455E+01  0.1227E+03
  10.220  0.3133E+01  0.1228E+03
  10.230  0.2766E+01  0.1228E+03
  10.240  0.2570E+01  0.1228E+03
  10.250  0.2438E+01  0.1228E+03
  10.260  0.2307E+01  0.1229E+03
  10.270  0.2126E+01  0.1229E+03
  10.280  0.1914E+01  0.1229E+03
  10.290  0.1917E+01  0.1229E+03
  10.300  0.1920E+01  0.1229E+03
  10.310  0.1923E+01  0.1230E+03
  10.320  0.1927E+01  0.1230E+03
  10.330  0.1930E+01  0.1230E+03
  10.340  0.1933E+01  0.1230E+03
  10.350  0.1936E+01  0.1230E+03
  10.360  0.1939E+01  0.1231E+03
  10.370  0.1942E+01  0.1231E+03
  10.380  0.1945E+01  0.1231E+03
  10.390  0.1949E+01  0.1231E+03
  10.400  0.1952E+01  0.1231E+03
  10.410  0.1955E+01  0.1232E+03
  10.420  0.1958E+01  0.1232E+03
  10.430  0.1961E+01  0.1232E+03
  10.440  0.1964E+01  0.1232E+03
  10.450  0.1967E+01  0.1232E+03
  10.460  0.1971E+01  0.1233E+03
  10.470  0.2124E+01  0.1233E+03
  10.480  0.2354E+01  0.1233E+03
  10.490  0.2522E+01  0.1233E+03
  10.500  0.2673E+01  0.1233E+03
  10.510  0.2824E+01  0.1234E+03
  10.520  0.3011E+01  0.1234E+03
  10.530  0.3558E+01  0.1234E+03
  10.540  0.3752E+01  0.1235E+03
  10.550  0.3836E+01  0.1235E+03
  10.560  0.3648E+01  0.1236E+03
  10.570  0.3345E+01  0.1236E+03
  10.580  0.3266E+01  0.1236E+03
  10.590  0.2606E+01  0.1237E+03
  10.600  0.2477E+01  0.1237E+03
  10.610  0.1861E+01  0.1237E+03
  10.620  0.1851E+01  0.1237E+03
  10.630  0.1841E+01  0.1237E+03
  10.640  0.1830E+01  0.1238E+03
  10.650  0.1820E+01  0.1238E+03
  10.660  0.1810E+01  0.1238E+03
  10.670  0.1799E+01  0.1238E+03
  10.680  0.1789E+01  0.1238E+03
  10.690  0.1779E+01  0.1239E+03
  10.700  0.1768E+01  0.1239E+03
  10.710  0.1758E+01  0.1239E+03
  10.720  0.1748E+01  0.1239E+03
  10.730  0.1737E+01  0.1239E+03
  10.740  0.1727E+01  0.1239E+03
  10.750  0.1717E+01  0.1240E+03
  10.760  0.1708E+01  0.1240E+03
  10.770  0.1702E+01  0.1240E+03
  10.780  0.1697E+01  0.1240E+03
  10.790  0.1691E+01  0.1240E+03
  10.800  0.1685E+01  0.1240E+03
  10.810  0.1680E+01  0.1241E+03
  10.820  0.1674E+01  0.1241E+03
  10.830  0.1668E+01  0.1241E+03
  10.840  0.1662E+01  0.1241E+03
  10.850  0.1657E+01  0.1241E+03
  10.860  0.1651E+01  0.1241E+03
  10.870  0.1645E+01  0.1242E+03
  10.880  0.1640E+01  0.1242E+03
  10.890  0.1634E+01  0.1242E+03
  10.900  0.1628E+01  0.1242E+03
  10.910  0.1623E+01  0.1242E+03
  10.920  0.1617E+01  0.1242E+03
  10.930  0.1611E+01  0.1243E+03
  10.940  0.1605E+01  0.1243E+03
  10.950  0.1594E+01  0.1243E+03
  10.960  0.1539E+01  0.1243E+03
  10.970  0.1509E+01  0.1243E+03
  10.980  0.1505E+01  0.1243E+03
  10.990  0.1501E+01  0.1244E+03
  11.000  0.1498E+01  0.1244E+03
  11.010  0.1494E+01  0.1244E+03
  11.020  0.1490E+01  0.1244E+03
  11.030  0.1486E+01  0.1244E+03
  11.040  0.1483E+01  0.1244E+03
  11.050  0.1479E+01  0.1244E+03
  11.060  0.1475E+01  0.1245E+03
  11.070  0.1471E+01  0.1245E+03
  11.080  0.1466E+01  0.1245E+03
  11.090  0.1459E+01  0.1245E+03
  11.100  0.1452E+01  0.1245E+03
  11.110  0.1446E+01  0.1245E+03
  11.120  0.1439E+01  0.1245E+03
  11.130  0.1432E+01  0.1246E+03
  11.140  0.1421E+01  0.1246E+03
  11.150  0.1383E+01  0.1246E+03
  11.160  0.1351E+01  0.1246E+03
  11.170  0.1344E+01  0.1246E+03
  11.180  0.1337E+01  0.1246E+03
  11.190  0.1330E+01  0.1246E+03
  11.200  0.1324E+01  0.1247E+03
  11.210  0.1317E+01  0.1247E+03
  11.220  0.1310E+01  0.1247E+03
  11.230  0.1303E+01  0.1247E+03
  11.240  0.1296E+01  0.1247E+03
  11.250  0.1289E+01  0.1247E+03
  11.260  0.1282E+01  0.1247E+03
  11.270  0.1275E+01  0.1247E+03
  11.280  0.1267E+01  0.1248E+03
  11.290  0.1255E+01  0.1248E+03
  11.300  0.1242E+01  0.1248E+03
  11.310  0.1231E+01  0.1248E+03
  11.320  0.1224E+01  0.1248E+03
  11.330  0.1216E+01  0.1248E+03
  11.340  0.1209E+01  0.1248E+03
  11.350  0.1202E+01  0.1248E+03
  11.360  0.1195E+01  0.1249E+03
  11.370  0.1188E+01  0.1249E+03
  11.380  0.1181E+01  0.1249E+03
  11.390  0.1173E+01  0.1249E+03
  11.400  0.1166E+01  0.1249E+03
  11.410  0.1159E+01  0.1249E+03
  11.420  0.1152E+01  0.1249E+03
  11.430  0.1145E+01  0.1249E+03
  11.440  0.1138E+01  0.1249E+03
  11.450  0.1130E+01  0.1250E+03
  11.460  0.1123E+01  0.1250E+03
  11.470  0.1116E+01  0.1250E+03
  11.480  0.1109E+01  0.1250E+03
  11.490  0.1102E+01  0.1250E+03
  11.500  0.1095E+01  0.1250E+03
  11.510  0.1087E+01  0.1250E+03
  11.520  0.1080E+01  0.1250E+03
  11.530  0.1073E+01  0.1250E+03
  11.540  0.1066E+01  0.1251E+03
  11.550  0.1059E+01  0.1251E+03
  11.560  0.1052E+01  0.1251E+03
  11.570  0.1044E+01  0.1251E+03
  11.580  0.1037E+01  0.1251E+03
  11.590  0.1030E+01  0.1251E+03
  11.600  0.1023E+01  0.1251E+03
  11.610  0.1016E+01  0.1251E+03
  11.620  0.1009E+01  0.1251E+03
  11.630  0.1001E+01  0.1252E+03
  11.640  0.9943E+00  0.1252E+03
  11.650  0.9871E+00  0.1252E+03
  11.660  0.9811E+00  0.1252E+03
  11.670  0.9782E+00  0.1252E+03
  11.680  0.9754E+00  0.1252E+03
  11.690  0.9726E+00  0.1252E+03
  11.700  0.9699E+00  0.1252E+03
  11.710  0.9671E+00  0.1252E+03
  11.720  0.9643E+00  0.1252E+03
  11.730  0.9616E+00  0.1252E+03
  11.740  0.9588E+00  0.1253E+03
  11.750  0.9560E+00  0.1253E+03
  11.760  0.9533E+00  0.1253E+03
  11.770  0.9505E+00  0.1253E+03
  11.780  0.9480E+00  0.1253E+03
  11.790  0.9494E+00  0.1253E+03
  11.800  0.9512E+00  0.1253E+03
  11.810  0.9529E+00  0.1253E+03
  11.820  0.9547E+00  0.1253E+03
  11.830  0.9564E+00  0.1253E+03
  11.840  0.9582E+00  0.1254E+03
  11.850  0.9599E+00  0.1254E+03
  11.860  0.9617E+00  0.1254E+03
  11.870  0.9634E+00  0.1254E+03
  11.880  0.9652E+00  0.1254E+03
  11.890  0.9669E+00  0.1254E+03
  11.900  0.9687E+00  0.1254E+03
  11.910  0.9705E+00  0.1254E+03
  11.920  0.9722E+00  0.1254E+03
  11.930  0.9740E+00  0.1254E+03
  11.940  0.9757E+00  0.1254E+03
  11.950  0.9775E+00  0.1255E+03
  11.960  0.9792E+00  0.1255E+03
  11.970  0.9810E+00  0.1255E+03
  11.980  0.9973E+00  0.1255E+03
  11.990  0.1002E+01  0.1255E+03
  12.000  0.1019E+01  0.1255E+03
  12.010  0.1014E+01  0.1255E+03
  12.020  0.1010E+01  0.1255E+03
  12.030  0.1005E+01  0.1255E+03
  12.040  0.1000E+01  0.1255E+03
  12.050  0.9955E+00  0.1256E+03
  12.060  0.9907E+00  0.1256E+03
  12.070  0.9860E+00  0.1256E+03
  12.080  0.9813E+00  0.1256E+03
  12.090  0.9962E+00  0.1256E+03
  12.100  0.1006E+01  0.1256E+03
  12.110  0.9943E+00  0.1256E+03
  12.120  0.9829E+00  0.1256E+03
  12.130  0.9715E+00  0.1256E+03
  12.140  0.3285E+01  0.1257E+03
  12.150  0.2985E+01  0.1257E+03
  12.160  0.3915E+01  0.1257E+03
  12.170  0.2135E+01  0.1258E+03
  12.180  0.2164E+01  0.1258E+03
  12.190  0.2193E+01  0.1258E+03
  12.200  0.2222E+01  0.1258E+03
  12.210  0.2251E+01  0.1259E+03
  12.220  0.2281E+01  0.1259E+03
  12.230  0.2310E+01  0.1259E+03
  12.240  0.2339E+01  0.1259E+03
  12.250  0.2368E+01  0.1259E+03
  12.260  0.2397E+01  0.1260E+03
  12.270  0.2426E+01  0.1260E+03
  12.280  0.2455E+01  0.1260E+03
  12.290  0.2484E+01  0.1260E+03
  12.300  0.2388E+01  0.1261E+03
  12.310  0.2236E+01  0.1261E+03
  12.320  0.2257E+01  0.1261E+03
  12.330  0.2278E+01  0.1261E+03
  12.340  0.2298E+01  0.1262E+03
  12.350  0.2319E+01  0.1262E+03
  12.360  0.2340E+01  0.1262E+03
  12.370  0.2360E+01  0.1262E+03
  12.380  0.2381E+01  0.1262E+03
  12.390  0.2402E+01  0.1263E+03
  12.400  0.2422E+01  0.1263E+03
  12.410  0.2443E+01  0.1263E+03
  12.420  0.2464E+01  0.1263E+03
  12.430  0.2484E+01  0.1264E+03
  12.440  0.2505E+01  0.1264E+03
  12.450  0.2526E+01  0.1264E+03
  12.460  0.2546E+01  0.1264E+03
  12.470  0.2567E+01  0.1265E+03
  12.480  0.2588E+01  0.1265E+03
  12.490  0.2608E+01  0.1265E+03
  12.500  0.5200E+01  0.1266E+03
  12.510  0.2462E+01  0.1266E+03
  12.520  0.2712E+01  0.1266E+03
  12.530  0.2867E+01  0.1267E+03
  12.540  0.2992E+01  0.1267E+03
  12.550  0.3128E+01  0.1267E+03
  12.560  0.3300E+01  0.1268E+03
  12.570  0.6127E+01  0.1268E+03
  12.580  0.3220E+01  0.1268E+03
  12.590  0.3242E+01  0.1269E+03
  12.600  0.3261E+01  0.1269E+03
  12.610  0.3279E+01  0.1269E+03
  12.620  0.3298E+01  0.1270E+03
  12.630  0.3316E+01  0.1270E+03
  12.640  0.3335E+01  0.1270E+03
  12.650  0.3353E+01  0.1271E+03
  12.660  0.3593E+01  0.1271E+03
  12.670  0.3491E+01  0.1272E+03
  12.680  0.3288E+01  0.1272E+03
  12.690  0.3704E+01  0.1272E+03
  12.700  0.3850E+01  0.1273E+03
  12.710  0.3817E+01  0.1273E+03
  12.720  0.3444E+01  0.1273E+03
  12.730  0.2618E+01  0.1274E+03
  12.740  0.2388E+01  0.1274E+03
  12.750  0.2208E+01  0.1274E+03
  12.760  0.2062E+01  0.1274E+03
  12.770  0.1936E+01  0.1275E+03
  12.780  0.1829E+01  0.1275E+03
  12.790  0.2922E+01  0.1275E+03
  12.800  0.2937E+01  0.1275E+03
  12.810  0.3416E+01  0.1276E+03
  12.820  0.2417E+01  0.1276E+03
  12.830  0.2482E+01  0.1276E+03
  12.840  0.2554E+01  0.1276E+03
  12.850  0.2632E+01  0.1277E+03
  12.860  0.2665E+01  0.1277E+03
  12.870  0.2773E+01  0.1277E+03
  12.880  0.2897E+01  0.1277E+03
  12.890  0.3036E+01  0.1278E+03
  12.900  0.3190E+01  0.1278E+03
  12.910  0.3361E+01  0.1278E+03
  12.920  0.3523E+01  0.1279E+03
  12.930  0.3108E+01  0.1279E+03
  12.940  0.2546E+01  0.1279E+03
  12.950  0.2733E+01  0.1280E+03
  12.960  0.3208E+01  0.1280E+03
  12.970  0.2670E+01  0.1280E+03
  12.980  0.2245E+01  0.1280E+03
  12.990  0.1833E+01  0.1281E+03
  13.000  0.1669E+01  0.1281E+03
  13.010  0.1517E+01  0.1281E+03
  13.020  0.1379E+01  0.1281E+03
  13.030  0.1253E+01  0.1281E+03
  13.040  0.1141E+01  0.1281E+03
  13.050  0.1041E+01  0.1282E+03
  13.060  0.6815E+00  0.1282E+03
  13.070  0.6939E+00  0.1282E+03
  13.080  0.7063E+00  0.1282E+03
  13.090  0.7186E+00  0.1282E+03
  13.100  0.7260E+00  0.1282E+03
  13.110  0.7323E+00  0.1282E+03
  13.120  0.7387E+00  0.1282E+03
  13.130  0.7451E+00  0.1282E+03
  13.140  0.7513E+00  0.1282E+03
  13.150  0.7577E+00  0.1282E+03
  13.160  0.7637E+00  0.1282E+03
  13.170  0.7693E+00  0.1282E+03
  13.180  0.7785E+00  0.1283E+03
  13.190  0.7884E+00  0.1283E+03
  13.200  0.7979E+00  0.1283E+03
  13.210  0.8212E+00  0.1283E+03
  13.220  0.8060E+00  0.1283E+03
  13.230  0.7907E+00  0.1283E+03
  13.240  0.7754E+00  0.1283E+03
  13.250  0.7601E+00  0.1283E+03
  13.260  0.7447E+00  0.1283E+03
  13.270  0.7293E+00  0.1283E+03
  13.280  0.7139E+00  0.1283E+03
  13.290  0.7018E+00  0.1283E+03
  13.300  0.6929E+00  0.1283E+03
  13.310  0.6867E+00  0.1284E+03
  13.320  0.6846E+00  0.1284E+03
  13.330  0.6892E+00  0.1284E+03
  13.340  0.6957E+00  0.1284E+03
  13.350  0.7021E+00  0.1284E+03
  13.360  0.7086E+00  0.1284E+03
  13.370  0.7151E+00  0.1284E+03
  13.380  0.7215E+00  0.1284E+03
  13.390  0.7280E+00  0.1284E+03
  13.400  0.7344E+00  0.1284E+03
  13.410  0.7409E+00  0.1284E+03
  13.420  0.8898E+00  0.1284E+03
  13.430  0.9071E+00  0.1284E+03
  13.440  0.9247E+00  0.1285E+03
  13.450  0.9426E+00  0.1285E+03
  13.460  0.9608E+00  0.1285E+03
  13.470  0.9792E+00  0.1285E+03
  13.480  0.9979E+00  0.1285E+03
  13.490  0.1040E+01  0.1285E+03
  13.500  0.1066E+01  0.1285E+03
  13.510  0.1092E+01  0.1285E+03
  13.520  0.1119E+01  0.1285E+03
  13.530  0.1146E+01  0.1285E+03
  13.540  0.1174E+01  0.1286E+03
  13.550  0.1203E+01  0.1286E+03
  13.560  0.1299E+01  0.1286E+03
  13.570  0.1321E+01  0.1286E+03
  13.580  0.2358E+01  0.1286E+03
  13.590  0.1692E+01  0.1287E+03
  13.600  0.1734E+01  0.1287E+03
  13.610  0.1778E+01  0.1287E+03
  13.620  0.1764E+01  0.1287E+03
  13.630  0.1804E+01  0.1287E+03
  13.640  0.1845E+01  0.1287E+03
  13.650  0.1887E+01  0.1288E+03
  13.660  0.1929E+01  0.1288E+03
  13.670  0.1869E+01  0.1288E+03
  13.680  0.2073E+01  0.1288E+03
  13.690  0.2124E+01  0.1288E+03
  13.700  0.2173E+01  0.1289E+03
  13.710  0.2225E+01  0.1289E+03
  13.720  0.2277E+01  0.1289E+03
  13.730  0.2331E+01  0.1289E+03
  13.740  0.2488E+01  0.1290E+03
  13.750  0.2550E+01  0.1290E+03
  13.760  0.2614E+01  0.1290E+03
  13.770  0.2742E+01  0.1290E+03
  13.780  0.2918E+01  0.1291E+03
  13.790  0.3090E+01  0.1291E+03
  13.800  0.3269E+01  0.1291E+03
  13.810  0.3408E+01  0.1292E+03
  13.820  0.3550E+01  0.1292E+03
  13.830  0.3719E+01  0.1292E+03
  13.840  0.3829E+01  0.1293E+03
  13.850  0.3926E+01  0.1293E+03
  13.860  0.4130E+01  0.1294E+03
  13.870  0.4205E+01  0.1294E+03
  13.880  0.4275E+01  0.1294E+03
  13.890  0.4020E+01  0.1295E+03
  13.900  0.3994E+01  0.1295E+03
  13.910  0.3917E+01  0.1296E+03
  13.920  0.3882E+01  0.1296E+03
  13.930  0.3847E+01  0.1296E+03
  13.940  0.3812E+01  0.1297E+03
  13.950  0.3777E+01  0.1297E+03
  13.960  0.3741E+01  0.1298E+03
  13.970  0.3706E+01  0.1298E+03
  13.980  0.3671E+01  0.1298E+03
  13.990  0.3636E+01  0.1299E+03
  14.000  0.3601E+01  0.1299E+03
  14.010  0.3566E+01  0.1299E+03
  14.020  0.3534E+01  0.1300E+03
  14.030  0.3506E+01  0.1300E+03
  14.040  0.3475E+01  0.1300E+03
  14.050  0.3687E+01  0.1301E+03
  14.060  0.3707E+01  0.1301E+03
  14.070  0.3648E+01  0.1302E+03
  14.080  0.3590E+01  0.1302E+03
  14.090  0.3531E+01  0.1302E+03
  14.100  0.3473E+01  0.1303E+03
  14.110  0.3415E+01  0.1303E+03
  14.120  0.3357E+01  0.1303E+03
  14.130  0.3299E+01  0.1304E+03
  14.140  0.3253E+01  0.1304E+03
  14.150  0.3205E+01  0.1304E+03
  14.160  0.5431E+01  0.1305E+03
  14.170  0.6069E+01  0.1305E+03
  14.180  0.5305E+01  0.1306E+03
  14.190  0.4815E+01  0.1306E+03
  14.200  0.5173E+01  0.1307E+03
  14.210  0.5351E+01  0.1307E+03
  14.220  0.1900E+01  0.1308E+03
  14.230  0.1920E+01  0.1308E+03
  14.240  0.1940E+01  0.1308E+03
  14.250  0.1959E+01  0.1308E+03
  14.260  0.1979E+01  0.1309E+03
  14.270  0.1999E+01  0.1309E+03
  14.280  0.2019E+01  0.1309E+03
  14.290  0.2038E+01  0.1309E+03
  14.300  0.2058E+01  0.1310E+03
  14.310  0.2078E+01  0.1310E+03
  14.320  0.2098E+01  0.1310E+03
  14.330  0.2104E+01  0.1310E+03
  14.340  0.2118E+01  0.1310E+03
  14.350  0.2132E+01  0.1311E+03
  14.360  0.2146E+01  0.1311E+03
  14.370  0.2160E+01  0.1311E+03
  14.380  0.2173E+01  0.1311E+03
  14.390  0.2185E+01  0.1311E+03
  14.400  0.2195E+01  0.1312E+03
  14.410  0.2204E+01  0.1312E+03
  14.420  0.2212E+01  0.1312E+03
  14.430  0.2216E+01  0.1312E+03
  14.440  0.2223E+01  0.1313E+03
  14.450  0.2233E+01  0.1313E+03
  14.460  0.2242E+01  0.1313E+03
  14.470  0.2251E+01  0.1313E+03
  14.480  0.2260E+01  0.1313E+03
  14.490  0.2268E+01  0.1314E+03
  14.500  0.2277E+01  0.1314E+03
  14.510  0.2286E+01  0.1314E+03
  14.520  0.2295E+01  0.1314E+03
  14.530  0.2310E+01  0.1315E+03
  14.540  0.2338E+01  0.1315E+03
  14.550  0.2377E+01  0.1315E+03
  14.560  0.2418E+01  0.1315E+03
  14.570  0.2459E+01  0.1316E+03
  14.580  0.2501E+01  0.1316E+03
  14.590  0.2542E+01  0.1316E+03
  14.600  0.2583E+01  0.1316E+03
  14.610  0.2624E+01  0.1317E+03
  14.620  0.2665E+01  0.1317E+03
  14.630  0.3405E+01  0.1317E+03
  14.640  0.3268E+01  0.1317E+03
  14.650  0.3359E+01  0.1318E+03
  14.660  0.3523E+01  0.1318E+03
  14.670  0.3627E+01  0.1319E+03
  14.680  0.3251E+01  0.1319E+03
  14.690  0.3203E+01  0.1319E+03
  14.700  0.3146E+01  0.1320E+03
  14.710  0.3072E+01  0.1320E+03
  14.720  0.2964E+01  0.1320E+03
  14.730  0.2796E+01  0.1320E+03
  14.740  0.2655E+01  0.1321E+03
  14.750  0.2642E+01  0.1321E+03
  14.760  0.2650E+01  0.1321E+03
  14.770  0.2694E+01  0.1322E+03
  14.780  0.6497E+01  0.1322E+03
  14.790  0.8240E+01  0.1323E+03
  14.800  0.6671E+01  0.1324E+03
  14.810  0.5479E+01  0.1324E+03
  14.820  0.5044E+01  0.1325E+03
  14.830  0.4167E+01  0.1325E+03
  14.840  0.4015E+01  0.1326E+03
  14.850  0.3867E+01  0.1326E+03
  14.860  0.3439E+01  0.1326E+03
  14.870  0.3421E+01  0.1327E+03
  14.880  0.3402E+01  0.1327E+03
  14.890  0.3384E+01  0.1327E+03
  14.900  0.3571E+01  0.1328E+03
  14.910  0.3832E+01  0.1328E+03
  14.920  0.4294E+01  0.1329E+03
  14.930  0.4640E+01  0.1329E+03
  14.940  0.4735E+01  0.1329E+03
  14.950  0.4870E+01  0.1330E+03
  14.960  0.5030E+01  0.1330E+03
  14.970  0.5603E+01  0.1331E+03
  14.980  0.5898E+01  0.1332E+03
  14.990  0.6211E+01  0.1332E+03
  15.000  0.6643E+01  0.1333E+03
  15.010  0.6430E+01  0.1334E+03
  15.020  0.6053E+01  0.1334E+03
  15.030  0.5793E+01  0.1335E+03
  15.040  0.5645E+01  0.1335E+03
  15.050  0.4281E+01  0.1336E+03
  15.060  0.4170E+01  0.1336E+03
  15.070  0.3693E+01  0.1337E+03
  15.080  0.3659E+01  0.1337E+03
  15.090  0.3630E+01  0.1337E+03
  15.100  0.3606E+01  0.1338E+03
  15.110  0.3587E+01  0.1338E+03
  15.120  0.3575E+01  0.1339E+03
  15.130  0.3573E+01  0.1339E+03
  15.140  0.3579E+01  0.1339E+03
  15.150  0.3595E+01  0.1340E+03
  15.160  0.3662E+01  0.1340E+03
  15.170  0.3740E+01  0.1340E+03
  15.180  0.3796E+01  0.1341E+03
  15.190  0.3864E+01  0.1341E+03
  15.200  0.3981E+01  0.1341E+03
  15.210  0.4126E+01  0.1342E+03
  15.220  0.4774E+01  0.1342E+03
  15.230  0.5329E+01  0.1343E+03
  15.240  0.5546E+01  0.1343E+03
  15.250  0.5911E+01  0.1344E+03
  15.260  0.6071E+01  0.1345E+03
  15.270  0.6231E+01  0.1345E+03
  15.280  0.6302E+01  0.1346E+03
  15.290  0.6368E+01  0.1346E+03
  15.300  0.6277E+01  0.1347E+03
  15.310  0.6229E+01  0.1348E+03
  15.320  0.6203E+01  0.1348E+03
  15.330  0.6185E+01  0.1349E+03
  15.340  0.6175E+01  0.1350E+03
  15.350  0.5163E+01  0.1350E+03
  15.360  0.2325E+02  0.1351E+03
  15.370  0.4652E+01  0.1352E+03
  15.380  0.6373E+01  0.1352E+03
  15.390  0.6907E+01  0.1353E+03
  15.400  0.6756E+01  0.1354E+03
  15.410  0.6063E+01  0.1355E+03
  15.420  0.5611E+01  0.1355E+03
  15.430  0.5708E+01  0.1356E+03
  15.440  0.5801E+01  0.1356E+03
  15.450  0.5897E+01  0.1357E+03
  15.460  0.5977E+01  0.1357E+03
  15.470  0.5813E+01  0.1358E+03
  15.480  0.5260E+01  0.1359E+03
  15.490  0.5195E+01  0.1359E+03
  15.500  0.5114E+01  0.1360E+03
  15.510  0.5207E+01  0.1360E+03
  15.520  0.5292E+01  0.1361E+03
  15.530  0.5498E+01  0.1361E+03
  15.540  0.5557E+01  0.1362E+03
  15.550  0.5616E+01  0.1362E+03
  15.560  0.5673E+01  0.1363E+03
  15.570  0.5730E+01  0.1364E+03
  15.580  0.5785E+01  0.1364E+03
  15.590  0.5287E+01  0.1365E+03
  15.600  0.4865E+01  0.1365E+03
  15.610  0.6619E+01  0.1366E+03
  15.620  0.6497E+01  0.1366E+03
  15.630  0.6500E+01  0.1367E+03
  15.640  0.6791E+01  0.1368E+03
  15.650  0.6981E+01  0.1368E+03
  15.660  0.7518E+01  0.1369E+03
  15.670  0.8282E+01  0.1370E+03
  15.680  0.1201E+02  0.1371E+03
  15.690  0.6839E+01  0.1372E+03
  15.700  0.8157E+01  0.1373E+03
  15.710  0.6900E+01  0.1373E+03
  15.720  0.7145E+01  0.1374E+03
  15.730  0.7350E+01  0.1375E+03
  15.740  0.7698E+01  0.1375E+03
  15.750  0.7517E+01  0.1376E+03
  15.760  0.7265E+01  0.1377E+03
  15.770  0.7581E+01  0.1378E+03
  15.780  0.8041E+01  0.1378E+03
  15.790  0.8221E+01  0.1379E+03
  15.800  0.1138E+02  0.1380E+03
  15.810  0.9937E+01  0.1381E+03
  15.820  0.9148E+01  0.1382E+03
  15.830  0.9146E+01  0.1383E+03
  15.840  0.9074E+01  0.1384E+03
  15.850  0.9038E+01  0.1385E+03
  15.860  0.9129E+01  0.1386E+03
  15.870  0.9199E+01  0.1387E+03
  15.880  0.9016E+01  0.1388E+03
  15.890  0.8885E+01  0.1389E+03
  15.900  0.8711E+01  0.1389E+03
  15.910  0.8546E+01  0.1390E+03
  15.920  0.8856E+01  0.1391E+03
  15.930  0.9700E+01  0.1392E+03
  15.940  0.9700E+01  0.1393E+03
  15.950  0.1018E+02  0.1394E+03
  15.960  0.9325E+01  0.1395E+03
  15.970  0.7637E+01  0.1396E+03
  15.980  0.7066E+01  0.1397E+03
  15.990  0.6889E+01  0.1398E+03
  16.000  0.6684E+01  0.1398E+03
  16.010  0.6500E+01  0.1399E+03
  16.020  0.6377E+01  0.1399E+03
  16.030  0.6293E+01  0.1400E+03
  16.040  0.7231E+01  0.1401E+03
  16.050  0.6593E+01  0.1402E+03
  16.060  0.6633E+01  0.1402E+03
  16.070  0.6681E+01  0.1403E+03
  16.080  0.6755E+01  0.1404E+03
  16.090  0.6787E+01  0.1404E+03
  16.100  0.6813E+01  0.1405E+03
  16.110  0.6785E+01  0.1406E+03
  16.120  0.6923E+01  0.1406E+03
  16.130  0.7623E+01  0.1407E+03
  16.140  0.8602E+01  0.1408E+03
  16.150  0.8834E+01  0.1409E+03
  16.160  0.8943E+01  0.1410E+03
  16.170  0.8611E+01  0.1411E+03
  16.180  0.8435E+01  0.1412E+03
  16.190  0.8544E+01  0.1412E+03
  16.200  0.9246E+01  0.1413E+03
  16.210  0.9140E+01  0.1414E+03
  16.220  0.8603E+01  0.1415E+03
  16.230  0.8278E+01  0.1416E+03
  16.240  0.7645E+01  0.1417E+03
  16.250  0.7482E+01  0.1418E+03
  16.260  0.7354E+01  0.1418E+03
  16.270  0.7247E+01  0.1419E+03
  16.280  0.7349E+01  0.1420E+03
  16.290  0.7423E+01  0.1421E+03
  16.300  0.7140E+01  0.1421E+03
  16.310  0.7010E+01  0.1422E+03
  16.320  0.6890E+01  0.1423E+03
  16.330  0.6745E+01  0.1423E+03
  16.340  0.6642E+01  0.1424E+03
  16.350  0.6574E+01  0.1425E+03
  16.360  0.6558E+01  0.1425E+03
  16.370  0.6357E+01  0.1426E+03
  16.380  0.6318E+01  0.1427E+03
  16.390  0.6193E+01  0.1427E+03
  16.400  0.6097E+01  0.1428E+03
  16.410  0.5994E+01  0.1429E+03
  16.420  0.5891E+01  0.1429E+03
  16.430  0.5377E+01  0.1430E+03
  16.440  0.5242E+01  0.1430E+03
  16.450  0.5115E+01  0.1431E+03
  16.460  0.4967E+01  0.1431E+03
  16.470  0.4761E+01  0.1432E+03
  16.480  0.5276E+01  0.1432E+03
  16.490  0.4699E+01  0.1433E+03
  16.500  0.4553E+01  0.1433E+03
  16.510  0.5001E+01  0.1434E+03
  16.520  0.5652E+01  0.1434E+03
  16.530  0.6957E+01  0.1435E+03
  16.540  0.5117E+01  0.1436E+03
  16.550  0.5150E+01  0.1436E+03
  16.560  0.5121E+01  0.1437E+03
  16.570  0.5158E+01  0.1437E+03
  16.580  0.5269E+01  0.1438E+03
  16.590  0.5366E+01  0.1438E+03
  16.600  0.5302E+01  0.1439E+03
  16.610  0.5247E+01  0.1440E+03
  16.620  0.5325E+01  0.1440E+03
  16.630  0.5374E+01  0.1441E+03
  16.640  0.5505E+01  0.1441E+03
  16.650  0.5706E+01  0.1442E+03
  16.660  0.5945E+01  0.1442E+03
  16.670  0.6203E+01  0.1443E+03
  16.680  0.6335E+01  0.1444E+03
  16.690  0.7812E+01  0.1444E+03
  16.700  0.8546E+01  0.1445E+03
  16.710  0.9172E+01  0.1446E+03
  16.720  0.1007E+02  0.1447E+03
  16.730  0.1095E+02  0.1448E+03
  16.740  0.1188E+02  0.1449E+03
  16.750  0.1285E+02  0.1450E+03
  16.760  0.1210E+02  0.1452E+03
  16.770  0.1196E+02  0.1453E+03
  16.780  0.1012E+02  0.1454E+03
  16.790  0.8557E+01  0.1455E+03
  16.800  0.7623E+01  0.1456E+03
  16.810  0.6941E+01  0.1457E+03
  16.820  0.6544E+01  0.1457E+03
  16.830  0.6260E+01  0.1458E+03
  16.840  0.5891E+01  0.1458E+03
  16.850  0.6165E+01  0.1459E+03
  16.860  0.6157E+01  0.1460E+03
  16.870  0.5532E+01  0.1460E+03
  16.880  0.5380E+01  0.1461E+03
  16.890  0.5453E+01  0.1461E+03
  16.900  0.5352E+01  0.1462E+03
  16.910  0.5262E+01  0.1462E+03
  16.920  0.5184E+01  0.1463E+03
  16.930  0.5126E+01  0.1464E+03
  16.940  0.5084E+01  0.1464E+03
  16.950  0.5052E+01  0.1465E+03
  16.960  0.5016E+01  0.1465E+03
  16.970  0.4954E+01  0.1466E+03
  16.980  0.4880E+01  0.1466E+03
  16.990  0.4721E+01  0.1467E+03
  17.000  0.4620E+01  0.1467E+03
  17.010  0.4637E+01  0.1467E+03
  17.020  0.4655E+01  0.1468E+03
  17.030  0.4679E+01  0.1468E+03
  17.040  0.4483E+01  0.1469E+03
  17.050  0.4353E+01  0.1469E+03
  17.060  0.4222E+01  0.1470E+03
  17.070  0.4044E+01  0.1470E+03
  17.080  0.4088E+01  0.1471E+03
  17.090  0.4141E+01  0.1471E+03
  17.100  0.4201E+01  0.1471E+03
  17.110  0.4269E+01  0.1472E+03
  17.120  0.4721E+01  0.1472E+03
  17.130  0.5813E+01  0.1473E+03
  17.140  0.6465E+01  0.1473E+03
  17.150  0.6873E+01  0.1474E+03
  17.160  0.7041E+01  0.1475E+03
  17.170  0.7874E+01  0.1476E+03
  17.180  0.7269E+01  0.1477E+03
  17.190  0.7270E+01  0.1477E+03
  17.200  0.4356E+01  0.1478E+03
  17.210  0.3765E+01  0.1478E+03
  17.220  0.3266E+01  0.1479E+03
  17.230  0.2371E+01  0.1479E+03
  17.240  0.1429E+01  0.1479E+03
  17.250  0.7644E+00  0.1479E+03
  17.260  0.6841E+00  0.1479E+03
  17.270  0.6114E+00  0.1479E+03
  17.280  0.5464E+00  0.1479E+03
  17.290  0.4891E+00  0.1480E+03
  17.300  0.5069E+00  0.1480E+03
  17.310  0.4699E+00  0.1480E+03
  17.320  0.4342E+00  0.1480E+03
  17.330  0.3996E+00  0.1480E+03
  17.340  0.3664E+00  0.1480E+03
  17.350  0.3343E+00  0.1480E+03
  17.360  0.3035E+00  0.1480E+03
  17.370  0.2739E+00  0.1480E+03
  17.380  0.2455E+00  0.1480E+03
  17.390  0.2184E+00  0.1480E+03
  17.400  0.1924E+00  0.1480E+03
  17.410  0.1678E+00  0.1480E+03
  17.420  0.0000E+00  0.1480E+03
  17.430  0.0000E+00  0.1480E+03
  17.440  0.0000E+00  0.1480E+03
  17.450  0.0000E+00  0.1480E+03
  17.460  0.0000E+00  0.1480E+03
  17.470  0.0000E+00  0.1480E+03
  17.480  0.0000E+00  0.1480E+03
  17.490  0.0000E+00  0.1480E+03
  17.500  0.0000E+00  0.1480E+03
  17.510  0.0000E+00  0.1480E+03
  17.520  0.0000E+00  0.1480E+03
  17.530  0.0000E+00  0.1480E+03
  17.540  0.0000E+00  0.1480E+03
  17.550  0.0000E+00  0.1480E+03
  17.560  0.0000E+00  0.1480E+03
  17.570  0.0000E+00  0.1480E+03
  17.580  0.0000E+00  0.1480E+03
  17.590  0.0000E+00  0.1480E+03
  17.600  0.0000E+00  0.1480E+03
  17.610  0.0000E+00  0.1480E+03
  17.620  0.0000E+00  0.1480E+03
  17.630  0.0000E+00  0.1480E+03
  17.640  0.0000E+00  0.1480E+03
  17.650  0.0000E+00  0.1480E+03
  17.660  0.0000E+00  0.1480E+03
  17.670  0.0000E+00  0.1480E+03
  17.680  0.0000E+00  0.1480E+03
  17.690  0.0000E+00  0.1480E+03
  17.700  0.0000E+00  0.1480E+03
  17.710  0.0000E+00  0.1480E+03
  17.720  0.0000E+00  0.1480E+03
  17.730  0.0000E+00  0.1480E+03
  17.740  0.0000E+00  0.1480E+03
  17.750  0.0000E+00  0.1480E+03
  17.760  0.0000E+00  0.1480E+03
  17.770  0.0000E+00  0.1480E+03
  17.780  0.0000E+00  0.1480E+03
  17.790  0.0000E+00  0.1480E+03
  17.800  0.0000E+00  0.1480E+03
  17.810  0.0000E+00  0.1480E+03
  17.820  0.0000E+00  0.1480E+03
  17.830  0.0000E+00  0.1480E+03
  17.840  0.0000E+00  0.1480E+03
  17.850  0.0000E+00  0.1480E+03
  17.860  0.0000E+00  0.1480E+03
  17.870  0.0000E+00  0.1480E+03
  17.880  0.0000E+00  0.1480E+03
  17.890  0.0000E+00  0.1480E+03
  17.900  0.0000E+00  0.1480E+03
  17.910  0.0000E+00  0.1480E+03
  17.920  0.0000E+00  0.1480E+03
  17.930  0.0000E+00  0.1480E+03
  17.940  0.0000E+00  0.1480E+03
  17.950  0.0000E+00  0.1480E+03
  17.960  0.0000E+00  0.1480E+03
  17.970  0.0000E+00  0.1480E+03
  17.980  0.0000E+00  0.1480E+03
  17.990  0.0000E+00  0.1480E+03
  18.000  0.0000E+00  0.1480E+03
  18.010  0.0000E+00  0.1480E+03
  18.020  0.0000E+00  0.1480E+03
  18.030  0.0000E+00  0.1480E+03
  18.040  0.0000E+00  0.1480E+03
  18.050  0.0000E+00  0.1480E+03
  18.060  0.0000E+00  0.1480E+03
  18.070  0.0000E+00  0.1480E+03
  18.080  0.0000E+00  0.1480E+03
  18.090  0.0000E+00  0.1480E+03
  18.100  0.0000E+00  0.1480E+03
  18.110  0.0000E+00  0.1480E+03
  18.120  0.0000E+00  0.1480E+03
  18.130  0.0000E+00  0.1480E+03
  18.140  0.0000E+00  0.1480E+03
  18.150  0.0000E+00  0.1480E+03
  18.160  0.0000E+00  0.1480E+03
  18.170  0.0000E+00  0.1480E+03
  18.180  0.0000E+00  0.1480E+03
  18.190  0.0000E+00  0.1480E+03
  18.200  0.0000E+00  0.1480E+03
  18.210  0.0000E+00  0.1480E+03
  18.220  0.0000E+00  0.1480E+03
  18.230  0.0000E+00  0.1480E+03
  18.240  0.0000E+00  0.1480E+03
  18.250  0.0000E+00  0.1480E+03
  18.260  0.0000E+00  0.1480E+03
  18.270  0.0000E+00  0.1480E+03
  18.280  0.0000E+00  0.1480E+03
  18.290  0.0000E+00  0.1480E+03
  18.300  0.0000E+00  0.1480E+03
  18.310  0.0000E+00  0.1480E+03
  18.320  0.0000E+00  0.1480E+03
  18.330  0.0000E+00  0.1480E+03
  18.340  0.0000E+00  0.1480E+03
  18.350  0.0000E+00  0.1480E+03
  18.360  0.0000E+00  0.1480E+03
  18.370  0.0000E+00  0.1480E+03
  18.380  0.0000E+00  0.1480E+03
  18.390  0.0000E+00  0.1480E+03
  18.400  0.0000E+00  0.1480E+03
  18.410  0.0000E+00  0.1480E+03
  18.420  0.0000E+00  0.1480E+03
  18.430  0.0000E+00  0.1480E+03
  18.440  0.0000E+00  0.1480E+03
  18.450  0.0000E+00  0.1480E+03
  18.460  0.0000E+00  0.1480E+03
  18.470  0.0000E+00  0.1480E+03
  18.480  0.0000E+00  0.1480E+03
  18.490  0.0000E+00  0.1480E+03
  18.500  0.0000E+00  0.1480E+03
  18.510  0.0000E+00  0.1480E+03
  18.520  0.0000E+00  0.1480E+03
  18.530  0.0000E+00  0.1480E+03
  18.540  0.0000E+00  0.1480E+03
  18.550  0.0000E+00  0.1480E+03
  18.560  0.0000E+00  0.1480E+03
  18.570  0.0000E+00  0.1480E+03
  18.580  0.0000E+00  0.1480E+03
  18.590  0.0000E+00  0.1480E+03
  18.600  0.0000E+00  0.1480E+03
  18.610  0.0000E+00  0.1480E+03
  18.620  0.0000E+00  0.1480E+03
  18.630  0.0000E+00  0.1480E+03
  18.640  0.0000E+00  0.1480E+03
  18.650  0.0000E+00  0.1480E+03
  18.660  0.0000E+00  0.1480E+03
  18.670  0.0000E+00  0.1480E+03
  18.680  0.0000E+00  0.1480E+03
  18.690  0.0000E+00  0.1480E+03
  18.700  0.0000E+00  0.1480E+03
  18.710  0.0000E+00  0.1480E+03
  18.720  0.0000E+00  0.1480E+03
  18.730  0.0000E+00  0.1480E+03
  18.740  0.0000E+00  0.1480E+03
  18.750  0.0000E+00  0.1480E+03
  18.760  0.0000E+00  0.1480E+03
  18.770  0.0000E+00  0.1480E+03
  18.780  0.0000E+00  0.1480E+03
  18.790  0.0000E+00  0.1480E+03
  18.800  0.0000E+00  0.1480E+03
  18.810  0.0000E+00  0.1480E+03
  18.820  0.0000E+00  0.1480E+03
  18.830  0.0000E+00  0.1480E+03
  18.840  0.0000E+00  0.1480E+03
  18.850  0.0000E+00  0.1480E+03
  18.860  0.0000E+00  0.1480E+03
  18.870  0.0000E+00  0.1480E+03
  18.880  0.0000E+00  0.1480E+03
  18.890  0.0000E+00  0.1480E+03
  18.900  0.0000E+00  0.1480E+03
  18.910  0.0000E+00  0.1480E+03
  18.920  0.0000E+00  0.1480E+03
  18.930  0.0000E+00  0.1480E+03
  18.940  0.0000E+00  0.1480E+03
  18.950  0.0000E+00  0.1480E+03
  18.960  0.0000E+00  0.1480E+03
  18.970  0.0000E+00  0.1480E+03
  18.980  0.0000E+00  0.1480E+03
  18.990  0.0000E+00  0.1480E+03
  19.000  0.0000E+00  0.1480E+03
  19.010  0.0000E+00  0.1480E+03
  19.020  0.0000E+00  0.1480E+03
  19.030  0.0000E+00  0.1480E+03
  19.040  0.0000E+00  0.1480E+03
  19.050  0.0000E+00  0.1480E+03
  19.060  0.0000E+00  0.1480E+03
  19.070  0.0000E+00  0.1480E+03
  19.080  0.0000E+00  0.1480E+03
  19.090  0.0000E+00  0.1480E+03
  19.100  0.0000E+00  0.1480E+03
  19.110  0.0000E+00  0.1480E+03
  19.120  0.0000E+00  0.1480E+03
  19.130  0.0000E+00  0.1480E+03
  19.140  0.0000E+00  0.1480E+03
  19.150  0.0000E+00  0.1480E+03
  19.160  0.0000E+00  0.1480E+03
  19.170  0.0000E+00  0.1480E+03
  19.180  0.0000E+00  0.1480E+03
  19.190  0.0000E+00  0.1480E+03
  19.200  0.0000E+00  0.1480E+03
  19.210  0.0000E+00  0.1480E+03
  19.220  0.0000E+00  0.1480E+03
  19.230  0.0000E+00  0.1480E+03
  19.240  0.0000E+00  0.1480E+03
  19.250  0.0000E+00  0.1480E+03
  19.260  0.0000E+00  0.1480E+03
  19.270  0.0000E+00  0.1480E+03
  19.280  0.0000E+00  0.1480E+03
  19.290  0.0000E+00  0.1480E+03
  19.300  0.0000E+00  0.1480E+03
  19.310  0.0000E+00  0.1480E+03
  19.320  0.0000E+00  0.1480E+03
  19.330  0.0000E+00  0.1480E+03
  19.340  0.0000E+00  0.1480E+03
  19.350  0.0000E+00  0.1480E+03
  19.360  0.0000E+00  0.1480E+03
  19.370  0.0000E+00  0.1480E+03
  19.380  0.0000E+00  0.1480E+03
  19.390  0.0000E+00  0.1480E+03
  19.400  0.0000E+00  0.1480E+03
  19.410  0.0000E+00  0.1480E+03
  19.420  0.0000E+00  0.1480E+03
  19.430  0.0000E+00  0.1480E+03
  19.440  0.0000E+00  0.1480E+03
  19.450  0.0000E+00  0.1480E+03
  19.460  0.0000E+00  0.1480E+03
  19.470  0.0000E+00  0.1480E+03
  19.480  0.0000E+00  0.1480E+03
  19.490  0.0000E+00  0.1480E+03
  19.500  0.0000E+00  0.1480E+03
  19.510  0.0000E+00  0.1480E+03
  19.520  0.0000E+00  0.1480E+03
  19.530  0.0000E+00  0.1480E+03
  19.540  0.0000E+00  0.1480E+03
  19.550  0.0000E+00  0.1480E+03
  19.560  0.0000E+00  0.1480E+03
  19.570  0.0000E+00  0.1480E+03
  19.580  0.0000E+00  0.1480E+03
  19.590  0.0000E+00  0.1480E+03
  19.600  0.0000E+00  0.1480E+03
  19.610  0.0000E+00  0.1480E+03
  19.620  0.0000E+00  0.1480E+03
  19.630  0.0000E+00  0.1480E+03
  19.640  0.0000E+00  0.1480E+03
  19.650  0.0000E+00  0.1480E+03
  19.660  0.0000E+00  0.1480E+03
  19.670  0.0000E+00  0.1480E+03
  19.680  0.0000E+00  0.1480E+03
  19.690  0.0000E+00  0.1480E+03
  19.700  0.0000E+00  0.1480E+03
  19.710  0.0000E+00  0.1480E+03
  19.720  0.0000E+00  0.1480E+03
  19.730  0.0000E+00  0.1480E+03
  19.740  0.0000E+00  0.1480E+03
  19.750  0.0000E+00  0.1480E+03
  19.760  0.0000E+00  0.1480E+03
  19.770  0.0000E+00  0.1480E+03
  19.780  0.0000E+00  0.1480E+03
  19.790  0.0000E+00  0.1480E+03
  19.800  0.0000E+00  0.1480E+03
  19.810  0.0000E+00  0.1480E+03
  19.820  0.0000E+00  0.1480E+03
  19.830  0.0000E+00  0.1480E+03
  19.840  0.0000E+00  0.1480E+03
  19.850  0.0000E+00  0.1480E+03
  19.860  0.0000E+00  0.1480E+03
  19.870  0.0000E+00  0.1480E+03
  19.880  0.0000E+00  0.1480E+03
  19.890  0.0000E+00  0.1480E+03
  19.900  0.0000E+00  0.1480E+03
  19.910  0.0000E+00  0.1480E+03
  19.920  0.0000E+00  0.1480E+03
  19.930  0.0000E+00  0.1480E+03
  19.940  0.0000E+00  0.1480E+03
  19.950  0.0000E+00  0.1480E+03
  19.960  0.0000E+00  0.1480E+03
  19.970  0.0000E+00  0.1480E+03
  19.980  0.0000E+00  0.1480E+03
  19.990  0.0000E+00  0.1480E+03
  20.000  0.0000E+00  0.1480E+03
  20.010  0.0000E+00  0.1480E+03
  20.020  0.0000E+00  0.1480E+03
  20.030  0.0000E+00  0.1480E+03
  20.040  0.0000E+00  0.1480E+03
  20.050  0.0000E+00  0.1480E+03
  20.060  0.0000E+00  0.1480E+03
  20.070  0.0000E+00  0.1480E+03
  20.080  0.0000E+00  0.1480E+03
  20.090  0.0000E+00  0.1480E+03
  20.100  0.0000E+00  0.1480E+03
  20.110  0.0000E+00  0.1480E+03
  20.120  0.0000E+00  0.1480E+03
  20.130  0.0000E+00  0.1480E+03
  20.140  0.0000E+00  0.1480E+03
  20.150  0.0000E+00  0.1480E+03
  20.160  0.0000E+00  0.1480E+03
  20.170  0.0000E+00  0.1480E+03
  20.180  0.0000E+00  0.1480E+03
  20.190  0.0000E+00  0.1480E+03
  20.200  0.0000E+00  0.1480E+03
  20.210  0.0000E+00  0.1480E+03
  20.220  0.0000E+00  0.1480E+03
  20.230  0.0000E+00  0.1480E+03
  20.240  0.0000E+00  0.1480E+03
  20.250  0.0000E+00  0.1480E+03
  20.260  0.0000E+00  0.1480E+03
  20.270  0.0000E+00  0.1480E+03
  20.280  0.0000E+00  0.1480E+03
  20.290  0.0000E+00  0.1480E+03
  20.300  0.0000E+00  0.1480E+03
  20.310  0.0000E+00  0.1480E+03
  20.320  0.0000E+00  0.1480E+03
  20.330  0.0000E+00  0.1480E+03
  20.340  0.0000E+00  0.1480E+03
  20.350  0.0000E+00  0.1480E+03
  20.360  0.0000E+00  0.1480E+03
  20.370  0.0000E+00  0.1480E+03
  20.380  0.0000E+00  0.1480E+03
  20.390  0.0000E+00  0.1480E+03
  20.400  0.0000E+00  0.1480E+03
  20.410  0.0000E+00  0.1480E+03
  20.420  0.0000E+00  0.1480E+03
  20.430  0.0000E+00  0.1480E+03
  20.440  0.0000E+00  0.1480E+03
  20.450  0.0000E+00  0.1480E+03
  20.460  0.0000E+00  0.1480E+03
  20.470  0.0000E+00  0.1480E+03
  20.480  0.0000E+00  0.1480E+03
  20.490  0.0000E+00  0.1480E+03
  20.500  0.0000E+00  0.1480E+03
  20.510  0.0000E+00  0.1480E+03
  20.520  0.0000E+00  0.1480E+03
  20.530  0.0000E+00  0.1480E+03
  20.540  0.0000E+00  0.1480E+03
  20.550  0.0000E+00  0.1480E+03
  20.560  0.0000E+00  0.1480E+03
  20.570  0.0000E+00  0.1480E+03
  20.580  0.0000E+00  0.1480E+03
  20.590  0.0000E+00  0.1480E+03
  20.600  0.0000E+00  0.1480E+03
  20.610  0.0000E+00  0.1480E+03
  20.620  0.0000E+00  0.1480E+03
  20.630  0.0000E+00  0.1480E+03
  20.640  0.0000E+00  0.1480E+03
  20.650  0.0000E+00  0.1480E+03
  20.660  0.0000E+00  0.1480E+03
  20.670  0.0000E+00  0.1480E+03
  20.680  0.0000E+00  0.1480E+03
  20.690  0.0000E+00  0.1480E+03
  20.700  0.0000E+00  0.1480E+03
  20.710  0.0000E+00  0.1480E+03
  20.720  0.0000E+00  0.1480E+03
  20.730  0.0000E+00  0.1480E+03
  20.740  0.0000E+00  0.1480E+03
  20.750  0.0000E+00  0.1480E+03
  20.760  0.0000E+00  0.1480E+03
  20.770  0.0000E+00  0.1480E+03
  20.780  0.0000E+00  0.1480E+03
  20.790  0.0000E+00  0.1480E+03
  20.800  0.0000E+00  0.1480E+03
  20.810  0.0000E+00  0.1480E+03
  20.820  0.0000E+00  0.1480E+03
  20.830  0.0000E+00  0.1480E+03
  20.840  0.0000E+00  0.1480E+03
  20.850  0.0000E+00  0.1480E+03
  20.860  0.0000E+00  0.1480E+03
  20.870  0.0000E+00  0.1480E+03
  20.880  0.0000E+00  0.1480E+03
  20.890  0.0000E+00  0.1480E+03
  20.900  0.0000E+00  0.1480E+03
  20.910  0.0000E+00  0.1480E+03
  20.920  0.0000E+00  0.1480E+03
  20.930  0.0000E+00  0.1480E+03
  20.940  0.0000E+00  0.1480E+03
  20.950  0.0000E+00  0.1480E+03
  20.960  0.0000E+00  0.1480E+03
  20.970  0.0000E+00  0.1480E+03
  20.980  0.0000E+00  0.1480E+03
  20.990  0.0000E+00  0.1480E+03
  21.000  0.0000E+00  0.1480E+03
  21.010  0.0000E+00  0.1480E+03
  21.020  0.0000E+00  0.1480E+03
  21.030  0.0000E+00  0.1480E+03
  21.040  0.0000E+00  0.1480E+03
  21.050  0.0000E+00  0.1480E+03
  21.060  0.0000E+00  0.1480E+03
  21.070  0.0000E+00  0.1480E+03
  21.080  0.0000E+00  0.1480E+03
  21.090  0.0000E+00  0.1480E+03
  21.100  0.0000E+00  0.1480E+03
  21.110  0.0000E+00  0.1480E+03
  21.120  0.0000E+00  0.1480E+03
  21.130  0.0000E+00  0.1480E+03
  21.140  0.0000E+00  0.1480E+03
  21.150  0.0000E+00  0.1480E+03
  21.160  0.0000E+00  0.1480E+03
  21.170  0.0000E+00  0.1480E+03
  21.180  0.0000E+00  0.1480E+03
  21.190  0.0000E+00  0.1480E+03
  21.200  0.0000E+00  0.1480E+03
  21.210  0.0000E+00  0.1480E+03
  21.220  0.0000E+00  0.1480E+03
  21.230  0.0000E+00  0.1480E+03
  21.240  0.0000E+00  0.1480E+03
  21.250  0.0000E+00  0.1480E+03
  21.260  0.0000E+00  0.1480E+03
  21.270  0.0000E+00  0.1480E+03
  21.280  0.0000E+00  0.1480E+03
  21.290  0.0000E+00  0.1480E+03
  21.300  0.0000E+00  0.1480E+03
  21.310  0.0000E+00  0.1480E+03
  21.320  0.0000E+00  0.1480E+03
  21.330  0.0000E+00  0.1480E+03
  21.340  0.0000E+00  0.1480E+03
  21.350  0.0000E+00  0.1480E+03
  21.360  0.0000E+00  0.1480E+03
  21.370  0.0000E+00  0.1480E+03
  21.380  0.0000E+00  0.1480E+03
  21.390  0.0000E+00  0.1480E+03
  21.400  0.0000E+00  0.1480E+03
  21.410  0.0000E+00  0.1480E+03
  21.420  0.0000E+00  0.1480E+03
  21.430  0.0000E+00  0.1480E+03
  21.440  0.0000E+00  0.1480E+03
  21.450  0.0000E+00  0.1480E+03
  21.460  0.0000E+00  0.1480E+03
  21.470  0.0000E+00  0.1480E+03
  21.480  0.0000E+00  0.1480E+03
  21.490  0.0000E+00  0.1480E+03
  21.500  0.0000E+00  0.1480E+03
  21.510  0.0000E+00  0.1480E+03
  21.520  0.0000E+00  0.1480E+03
  21.530  0.0000E+00  0.1480E+03
  21.540  0.0000E+00  0.1480E+03
  21.550  0.0000E+00  0.1480E+03
  21.560  0.0000E+00  0.1480E+03
  21.570  0.0000E+00  0.1480E+03
  21.580  0.0000E+00  0.1480E+03
  21.590  0.0000E+00  0.1480E+03
  21.600  0.0000E+00  0.1480E+03
  21.610  0.0000E+00  0.1480E+03
  21.620  0.0000E+00  0.1480E+03
  21.630  0.0000E+00  0.1480E+03
  21.640  0.0000E+00  0.1480E+03
  21.650  0.0000E+00  0.1480E+03
  21.660  0.0000E+00  0.1480E+03
  21.670  0.0000E+00  0.1480E+03
  21.680  0.0000E+00  0.1480E+03
  21.690  0.0000E+00  0.1480E+03
  21.700  0.0000E+00  0.1480E+03
  21.710  0.0000E+00  0.1480E+03
  21.720  0.0000E+00  0.1480E+03
  21.730  0.0000E+00  0.1480E+03
  21.740  0.0000E+00  0.1480E+03
  21.750  0.0000E+00  0.1480E+03
  21.760  0.0000E+00  0.1480E+03
  21.770  0.0000E+00  0.1480E+03
  21.780  0.0000E+00  0.1480E+03
  21.790  0.0000E+00  0.1480E+03
  21.800  0.0000E+00  0.1480E+03
  21.810  0.0000E+00  0.1480E+03
  21.820  0.0000E+00  0.1480E+03
  21.830  0.0000E+00  0.1480E+03
  21.840  0.0000E+00  0.1480E+03
  21.850  0.0000E+00  0.1480E+03
  21.860  0.0000E+00  0.1480E+03
  21.870  0.0000E+00  0.1480E+03
  21.880  0.0000E+00  0.1480E+03
  21.890  0.0000E+00  0.1480E+03
  21.900  0.0000E+00  0.1480E+03
  21.910  0.0000E+00  0.1480E+03
  21.920  0.0000E+00  0.1480E+03
  21.930  0.0000E+00  0.1480E+03
  21.940  0.0000E+00  0.1480E+03
  21.950  0.0000E+00  0.1480E+03
  21.960  0.0000E+00  0.1480E+03
  21.970  0.0000E+00  0.1480E+03
  21.980  0.0000E+00  0.1480E+03
  21.990  0.0000E+00  0.1480E+03
  22.000  0.0000E+00  0.1480E+03
  22.010  0.0000E+00  0.1480E+03
  22.020  0.0000E+00  0.1480E+03
  22.030  0.0000E+00  0.1480E+03
  22.040  0.0000E+00  0.1480E+03
  22.050  0.0000E+00  0.1480E+03
  22.060  0.0000E+00  0.1480E+03
  22.070  0.0000E+00  0.1480E+03
  22.080  0.0000E+00  0.1480E+03
  22.090  0.0000E+00  0.1480E+03
  22.100  0.0000E+00  0.1480E+03
  22.110  0.0000E+00  0.1480E+03
  22.120  0.0000E+00  0.1480E+03
  22.130  0.0000E+00  0.1480E+03
  22.140  0.0000E+00  0.1480E+03
  22.150  0.0000E+00  0.1480E+03
  22.160  0.0000E+00  0.1480E+03
  22.170  0.0000E+00  0.1480E+03
  22.180  0.0000E+00  0.1480E+03
  22.190  0.0000E+00  0.1480E+03
  22.200  0.0000E+00  0.1480E+03
  22.210  0.0000E+00  0.1480E+03
  22.220  0.0000E+00  0.1480E+03
  22.230  0.0000E+00  0.1480E+03
  22.240  0.0000E+00  0.1480E+03
  22.250  0.0000E+00  0.1480E+03
  22.260  0.0000E+00  0.1480E+03
  22.270  0.0000E+00  0.1480E+03
  22.280  0.0000E+00  0.1480E+03
  22.290  0.0000E+00  0.1480E+03
  22.300  0.0000E+00  0.1480E+03
  22.310  0.0000E+00  0.1480E+03
  22.320  0.0000E+00  0.1480E+03
  22.330  0.0000E+00  0.1480E+03
  22.340  0.0000E+00  0.1480E+03
  22.350  0.0000E+00  0.1480E+03
  22.360  0.0000E+00  0.1480E+03
  22.370  0.0000E+00  0.1480E+03
  22.380  0.0000E+00  0.1480E+03
  22.390  0.0000E+00  0.1480E+03
  22.400  0.0000E+00  0.1480E+03
  22.410  0.0000E+00  0.1480E+03
  22.420  0.0000E+00  0.1480E+03
  22.430  0.0000E+00  0.1480E+03
  22.440  0.0000E+00  0.1480E+03
  22.450  0.0000E+00  0.1480E+03
  22.460  0.0000E+00  0.1480E+03
  22.470  0.0000E+00  0.1480E+03
  22.480  0.0000E+00  0.1480E+03
  22.490  0.0000E+00  0.1480E+03
  22.500  0.0000E+00  0.1480E+03
  22.510  0.0000E+00  0.1480E+03
  22.520  0.0000E+00  0.1480E+03
  22.530  0.0000E+00  0.1480E+03
  22.540  0.0000E+00  0.1480E+03
  22.550  0.0000E+00  0.1480E+03
  22.560  0.0000E+00  0.1480E+03
  22.570  0.0000E+00  0.1480E+03
  22.580  0.0000E+00  0.1480E+03
  22.590  0.0000E+00  0.1480E+03
  22.600  0.0000E+00  0.1480E+03
  22.610  0.0000E+00  0.1480E+03
  22.620  0.0000E+00  0.1480E+03
  22.630  0.0000E+00  0.1480E+03
  22.640  0.0000E+00  0.1480E+03
  22.650  0.0000E+00  0.1480E+03
  22.660  0.0000E+00  0.1480E+03
  22.670  0.0000E+00  0.1480E+03
  22.680  0.0000E+00  0.1480E+03
  22.690  0.0000E+00  0.1480E+03
  22.700  0.0000E+00  0.1480E+03
  22.710  0.0000E+00  0.1480E+03
  22.720  0.0000E+00  0.1480E+03
  22.730  0.0000E+00  0.1480E+03
  22.740  0.0000E+00  0.1480E+03
  22.750  0.0000E+00  0.1480E+03
  22.760  0.0000E+00  0.1480E+03
  22.770  0.0000E+00  0.1480E+03
  22.780  0.0000E+00  0.1480E+03
  22.790  0.0000E+00  0.1480E+03
  22.800  0.0000E+00  0.1480E+03
  22.810  0.0000E+00  0.1480E+03
  22.820  0.0000E+00  0.1480E+03
  22.830  0.0000E+00  0.1480E+03
  22.840  0.0000E+00  0.1480E+03
  22.850  0.0000E+00  0.1480E+03
  22.860  0.0000E+00  0.1480E+03
  22.870  0.0000E+00  0.1480E+03
  22.880  0.0000E+00  0.1480E+03
  22.890  0.0000E+00  0.1480E+03
  22.900  0.0000E+00  0.1480E+03
  22.910  0.0000E+00  0.1480E+03
  22.920  0.0000E+00  0.1480E+03
  22.930  0.0000E+00  0.1480E+03
  22.940  0.0000E+00  0.1480E+03
  22.950  0.0000E+00  0.1480E+03
  22.960  0.0000E+00  0.1480E+03
  22.970  0.0000E+00  0.1480E+03
  22.980  0.0000E+00  0.1480E+03
  22.990  0.0000E+00  0.1480E+03
  23.000  0.0000E+00  0.1480E+03
  23.010  0.0000E+00  0.1480E+03
  23.020  0.0000E+00  0.1480E+03
  23.030  0.0000E+00  0.1480E+03
  23.040  0.0000E+00  0.1480E+03
  23.050  0.0000E+00  0.1480E+03
  23.060  0.0000E+00  0.1480E+03
  23.070  0.0000E+00  0.1480E+03
  23.080  0.0000E+00  0.1480E+03
  23.090  0.0000E+00  0.1480E+03
  23.100  0.0000E+00  0.1480E+03
  23.110  0.0000E+00  0.1480E+03
  23.120  0.0000E+00  0.1480E+03
  23.130  0.0000E+00  0.1480E+03
  23.140  0.0000E+00  0.1480E+03
  23.150  0.0000E+00  0.1480E+03
  23.160  0.0000E+00  0.1480E+03
  23.170  0.0000E+00  0.1480E+03
  23.180  0.0000E+00  0.1480E+03
  23.190  0.0000E+00  0.1480E+03
  23.200  0.0000E+00  0.1480E+03
  23.210  0.0000E+00  0.1480E+03
  23.220  0.0000E+00  0.1480E+03
  23.230  0.0000E+00  0.1480E+03
  23.240  0.0000E+00  0.1480E+03
  23.250  0.0000E+00  0.1480E+03
  23.260  0.0000E+00  0.1480E+03
  23.270  0.0000E+00  0.1480E+03
  23.280  0.0000E+00  0.1480E+03
  23.290  0.0000E+00  0.1480E+03
  23.300  0.0000E+00  0.1480E+03
  23.310  0.0000E+00  0.1480E+03
  23.320  0.0000E+00  0.1480E+03
  23.330  0.0000E+00  0.1480E+03
  23.340  0.0000E+00  0.1480E+03
  23.350  0.0000E+00  0.1480E+03
  23.360  0.0000E+00  0.1480E+03
  23.370  0.0000E+00  0.1480E+03
  23.380  0.0000E+00  0.1480E+03
  23.390  0.0000E+00  0.1480E+03
  23.400  0.0000E+00  0.1480E+03
  23.410  0.0000E+00  0.1480E+03
  23.420  0.0000E+00  0.1480E+03
  23.430  0.0000E+00  0.1480E+03
  23.440  0.0000E+00  0.1480E+03
  23.450  0.0000E+00  0.1480E+03
  23.460  0.0000E+00  0.1480E+03
  23.470  0.0000E+00  0.1480E+03
  23.480  0.0000E+00  0.1480E+03
  23.490  0.0000E+00  0.1480E+03
  23.500  0.0000E+00  0.1480E+03
  23.510  0.0000E+00  0.1480E+03
  23.520  0.0000E+00  0.1480E+03
  23.530  0.0000E+00  0.1480E+03
  23.540  0.0000E+00  0.1480E+03
  23.550  0.0000E+00  0.1480E+03
  23.560  0.0000E+00  0.1480E+03
  23.570  0.0000E+00  0.1480E+03
  23.580  0.0000E+00  0.1480E+03
  23.590  0.0000E+00  0.1480E+03
  23.600  0.0000E+00  0.1480E+03
  23.610  0.0000E+00  0.1480E+03
  23.620  0.0000E+00  0.1480E+03
  23.630  0.0000E+00  0.1480E+03
  23.640  0.0000E+00  0.1480E+03
  23.650  0.0000E+00  0.1480E+03
  23.660  0.0000E+00  0.1480E+03
  23.670  0.0000E+00  0.1480E+03
  23.680  0.0000E+00  0.1480E+03
  23.690  0.0000E+00  0.1480E+03
  23.700  0.0000E+00  0.1480E+03
  23.710  0.0000E+00  0.1480E+03
  23.720  0.0000E+00  0.1480E+03
  23.730  0.0000E+00  0.1480E+03
  23.740  0.0000E+00  0.1480E+03
  23.750  0.0000E+00  0.1480E+03
  23.760  0.0000E+00  0.1480E+03
  23.770  0.0000E+00  0.1480E+03
  23.780  0.0000E+00  0.1480E+03
  23.790  0.0000E+00  0.1480E+03
  23.800  0.0000E+00  0.1480E+03
  23.810  0.0000E+00  0.1480E+03
  23.820  0.0000E+00  0.1480E+03
  23.830  0.0000E+00  0.1480E+03
  23.840  0.0000E+00  0.1480E+03
  23.850  0.0000E+00  0.1480E+03
  23.860  0.0000E+00  0.1480E+03
  23.870  0.0000E+00  0.1480E+03
  23.880  0.0000E+00  0.1480E+03
  23.890  0.0000E+00  0.1480E+03
  23.900  0.0000E+00  0.1480E+03
  23.910  0.0000E+00  0.1480E+03
  23.920  0.0000E+00  0.1480E+03
  23.930  0.0000E+00  0.1480E+03
  23.940  0.0000E+00  0.1480E+03
  23.950  0.0000E+00  0.1480E+03
  23.960  0.0000E+00  0.1480E+03
  23.970  0.0000E+00  0.1480E+03
  23.980  0.0000E+00  0.1480E+03
  23.990  0.0000E+00  0.1480E+03
  24.000  0.0000E+00  0.1480E+03
  24.010  0.0000E+00  0.1480E+03
  24.020  0.0000E+00  0.1480E+03
  24.030  0.0000E+00  0.1480E+03
  24.040  0.0000E+00  0.1480E+03
  24.050  0.0000E+00  0.1480E+03
  24.060  0.0000E+00  0.1480E+03
  24.070  0.0000E+00  0.1480E+03
  24.080  0.0000E+00  0.1480E+03
  24.090  0.0000E+00  0.1480E+03
  24.100  0.0000E+00  0.1480E+03
  24.110  0.0000E+00  0.1480E+03
  24.120  0.0000E+00  0.1480E+03
  24.130  0.0000E+00  0.1480E+03
  24.140  0.0000E+00  0.1480E+03
  24.150  0.0000E+00  0.1480E+03
  24.160  0.0000E+00  0.1480E+03
  24.170  0.0000E+00  0.1480E+03
  24.180  0.0000E+00  0.1480E+03
  24.190  0.0000E+00  0.1480E+03
  24.200  0.0000E+00  0.1480E+03
  24.210  0.0000E+00  0.1480E+03
  24.220  0.0000E+00  0.1480E+03
  24.230  0.0000E+00  0.1480E+03
  24.240  0.0000E+00  0.1480E+03
  24.250  0.0000E+00  0.1480E+03
  24.260  0.0000E+00  0.1480E+03
  24.270  0.0000E+00  0.1480E+03
  24.280  0.0000E+00  0.1480E+03
  24.290  0.0000E+00  0.1480E+03
  24.300  0.0000E+00  0.1480E+03
  24.310  0.0000E+00  0.1480E+03
  24.320  0.0000E+00  0.1480E+03
  24.330  0.0000E+00  0.1480E+03
  24.340  0.0000E+00  0.1480E+03
  24.350  0.0000E+00  0.1480E+03
  24.360  0.0000E+00  0.1480E+03
  24.370  0.0000E+00  0.1480E+03
  24.380  0.0000E+00  0.1480E+03
  24.390  0.0000E+00  0.1480E+03
  24.400  0.0000E+00  0.1480E+03
  24.410  0.0000E+00  0.1480E+03
  24.420  0.0000E+00  0.1480E+03
  24.430  0.0000E+00  0.1480E+03
  24.440  0.0000E+00  0.1480E+03
  24.450  0.0000E+00  0.1480E+03
  24.460  0.0000E+00  0.1480E+03
  24.470  0.0000E+00  0.1480E+03
  24.480  0.0000E+00  0.1480E+03
  24.490  0.0000E+00  0.1480E+03
  24.500  0.0000E+00  0.1480E+03
  24.510  0.0000E+00  0.1480E+03
  24.520  0.0000E+00  0.1480E+03
  24.530  0.0000E+00  0.1480E+03
  24.540  0.0000E+00  0.1480E+03
  24.550  0.0000E+00  0.1480E+03
  24.560  0.0000E+00  0.1480E+03
  24.570  0.0000E+00  0.1480E+03
  24.580  0.0000E+00  0.1480E+03
  24.590  0.0000E+00  0.1480E+03
  24.600  0.0000E+00  0.1480E+03
  24.610  0.0000E+00  0.1480E+03
  24.620  0.0000E+00  0.1480E+03
  24.630  0.0000E+00  0.1480E+03
  24.640  0.0000E+00  0.1480E+03
  24.650  0.0000E+00  0.1480E+03
  24.660  0.0000E+00  0.1480E+03
  24.670  0.0000E+00  0.1480E+03
  24.680  0.0000E+00  0.1480E+03
  24.690  0.0000E+00  0.1480E+03
  24.700  0.0000E+00  0.1480E+03
  24.710  0.0000E+00  0.1480E+03
  24.720  0.0000E+00  0.1480E+03
  24.730  0.0000E+00  0.1480E+03
  24.740  0.0000E+00  0.1480E+03
  24.750  0.0000E+00  0.1480E+03
  24.760  0.0000E+00  0.1480E+03
  24.770  0.0000E+00  0.1480E+03
  24.780  0.0000E+00  0.1480E+03
  24.790  0.0000E+00  0.1480E+03
  24.800  0.0000E+00  0.1480E+03
  24.810  0.0000E+00  0.1480E+03
  24.820  0.0000E+00  0.1480E+03
  24.830  0.0000E+00  0.1480E+03
  24.840  0.0000E+00  0.1480E+03
  24.850  0.0000E+00  0.1480E+03
  24.860  0.0000E+00  0.1480E+03
  24.870  0.0000E+00  0.1480E+03
  24.880  0.0000E+00  0.1480E+03
  24.890  0.0000E+00  0.1480E+03
  24.900  0.0000E+00  0.1480E+03
  24.910  0.0000E+00  0.1480E+03
  24.920  0.0000E+00  0.1480E+03
  24.930  0.0000E+00  0.1480E+03
  24.940  0.0000E+00  0.1480E+03
  24.950  0.0000E+00  0.1480E+03
  24.960  0.0000E+00  0.1480E+03
  24.970  0.0000E+00  0.1480E+03
  24.980  0.0000E+00  0.1480E+03
  24.990  0.0000E+00  0.1480E+03
  25.000  0.0000E+00  0.1480E+03
