#  E (eV)   dos(E)     Int dos(E) EFermi =   10.329 eV
   0.000  0.0000E+00  0.6000E+02
   0.010  0.0000E+00  0.6000E+02
   0.020  0.0000E+00  0.6000E+02
   0.030  0.0000E+00  0.6000E+02
   0.040  0.0000E+00  0.6000E+02
   0.050  0.0000E+00  0.6000E+02
   0.060  0.0000E+00  0.6000E+02
   0.070  0.0000E+00  0.6000E+02
   0.080  0.0000E+00  0.6000E+02
   0.090  0.0000E+00  0.6000E+02
   0.100  0.0000E+00  0.6000E+02
   0.110  0.0000E+00  0.6000E+02
   0.120  0.0000E+00  0.6000E+02
   0.130  0.0000E+00  0.6000E+02
   0.140  0.0000E+00  0.6000E+02
   0.150  0.0000E+00  0.6000E+02
   0.160  0.0000E+00  0.6000E+02
   0.170  0.0000E+00  0.6000E+02
   0.180  0.0000E+00  0.6000E+02
   0.190  0.0000E+00  0.6000E+02
   0.200  0.0000E+00  0.6000E+02
   0.210  0.0000E+00  0.6000E+02
   0.220  0.0000E+00  0.6000E+02
   0.230  0.0000E+00  0.6000E+02
   0.240  0.0000E+00  0.6000E+02
   0.250  0.0000E+00  0.6000E+02
   0.260  0.0000E+00  0.6000E+02
   0.270  0.0000E+00  0.6000E+02
   0.280  0.0000E+00  0.6000E+02
   0.290  0.0000E+00  0.6000E+02
   0.300  0.0000E+00  0.6000E+02
   0.310  0.0000E+00  0.6000E+02
   0.320  0.0000E+00  0.6000E+02
   0.330  0.0000E+00  0.6000E+02
   0.340  0.0000E+00  0.6000E+02
   0.350  0.0000E+00  0.6000E+02
   0.360  0.0000E+00  0.6000E+02
   0.370  0.0000E+00  0.6000E+02
   0.380  0.0000E+00  0.6000E+02
   0.390  0.0000E+00  0.6000E+02
   0.400  0.0000E+00  0.6000E+02
   0.410  0.0000E+00  0.6000E+02
   0.420  0.0000E+00  0.6000E+02
   0.430  0.0000E+00  0.6000E+02
   0.440  0.0000E+00  0.6000E+02
   0.450  0.0000E+00  0.6000E+02
   0.460  0.0000E+00  0.6000E+02
   0.470  0.0000E+00  0.6000E+02
   0.480  0.0000E+00  0.6000E+02
   0.490  0.0000E+00  0.6000E+02
   0.500  0.0000E+00  0.6000E+02
   0.510  0.0000E+00  0.6000E+02
   0.520  0.0000E+00  0.6000E+02
   0.530  0.0000E+00  0.6000E+02
   0.540  0.0000E+00  0.6000E+02
   0.550  0.0000E+00  0.6000E+02
   0.560  0.0000E+00  0.6000E+02
   0.570  0.0000E+00  0.6000E+02
   0.580  0.0000E+00  0.6000E+02
   0.590  0.0000E+00  0.6000E+02
   0.600  0.0000E+00  0.6000E+02
   0.610  0.0000E+00  0.6000E+02
   0.620  0.0000E+00  0.6000E+02
   0.630  0.0000E+00  0.6000E+02
   0.640  0.0000E+00  0.6000E+02
   0.650  0.0000E+00  0.6000E+02
   0.660  0.0000E+00  0.6000E+02
   0.670  0.0000E+00  0.6000E+02
   0.680  0.0000E+00  0.6000E+02
   0.690  0.0000E+00  0.6000E+02
   0.700  0.0000E+00  0.6000E+02
   0.710  0.0000E+00  0.6000E+02
   0.720  0.0000E+00  0.6000E+02
   0.730  0.0000E+00  0.6000E+02
   0.740  0.0000E+00  0.6000E+02
   0.750  0.0000E+00  0.6000E+02
   0.760  0.0000E+00  0.6000E+02
   0.770  0.0000E+00  0.6000E+02
   0.780  0.0000E+00  0.6000E+02
   0.790  0.0000E+00  0.6000E+02
   0.800  0.0000E+00  0.6000E+02
   0.810  0.0000E+00  0.6000E+02
   0.820  0.0000E+00  0.6000E+02
   0.830  0.0000E+00  0.6000E+02
   0.840  0.0000E+00  0.6000E+02
   0.850  0.0000E+00  0.6000E+02
   0.860  0.0000E+00  0.6000E+02
   0.870  0.0000E+00  0.6000E+02
   0.880  0.0000E+00  0.6000E+02
   0.890  0.0000E+00  0.6000E+02
   0.900  0.0000E+00  0.6000E+02
   0.910  0.0000E+00  0.6000E+02
   0.920  0.0000E+00  0.6000E+02
   0.930  0.0000E+00  0.6000E+02
   0.940  0.0000E+00  0.6000E+02
   0.950  0.0000E+00  0.6000E+02
   0.960  0.0000E+00  0.6000E+02
   0.970  0.0000E+00  0.6000E+02
   0.980  0.0000E+00  0.6000E+02
   0.990  0.0000E+00  0.6000E+02
   1.000  0.0000E+00  0.6000E+02
   1.010  0.0000E+00  0.6000E+02
   1.020  0.0000E+00  0.6000E+02
   1.030  0.0000E+00  0.6000E+02
   1.040  0.0000E+00  0.6000E+02
   1.050  0.0000E+00  0.6000E+02
   1.060  0.0000E+00  0.6000E+02
   1.070  0.0000E+00  0.6000E+02
   1.080  0.0000E+00  0.6000E+02
   1.090  0.0000E+00  0.6000E+02
   1.100  0.0000E+00  0.6000E+02
   1.110  0.0000E+00  0.6000E+02
   1.120  0.0000E+00  0.6000E+02
   1.130  0.0000E+00  0.6000E+02
   1.140  0.0000E+00  0.6000E+02
   1.150  0.0000E+00  0.6000E+02
   1.160  0.0000E+00  0.6000E+02
   1.170  0.0000E+00  0.6000E+02
   1.180  0.0000E+00  0.6000E+02
   1.190  0.0000E+00  0.6000E+02
   1.200  0.0000E+00  0.6000E+02
   1.210  0.0000E+00  0.6000E+02
   1.220  0.0000E+00  0.6000E+02
   1.230  0.0000E+00  0.6000E+02
   1.240  0.0000E+00  0.6000E+02
   1.250  0.0000E+00  0.6000E+02
   1.260  0.0000E+00  0.6000E+02
   1.270  0.0000E+00  0.6000E+02
   1.280  0.0000E+00  0.6000E+02
   1.290  0.0000E+00  0.6000E+02
   1.300  0.0000E+00  0.6000E+02
   1.310  0.0000E+00  0.6000E+02
   1.320  0.0000E+00  0.6000E+02
   1.330  0.0000E+00  0.6000E+02
   1.340  0.0000E+00  0.6000E+02
   1.350  0.0000E+00  0.6000E+02
   1.360  0.0000E+00  0.6000E+02
   1.370  0.0000E+00  0.6000E+02
   1.380  0.0000E+00  0.6000E+02
   1.390  0.0000E+00  0.6000E+02
   1.400  0.0000E+00  0.6000E+02
   1.410  0.0000E+00  0.6000E+02
   1.420  0.0000E+00  0.6000E+02
   1.430  0.0000E+00  0.6000E+02
   1.440  0.0000E+00  0.6000E+02
   1.450  0.0000E+00  0.6000E+02
   1.460  0.0000E+00  0.6000E+02
   1.470  0.0000E+00  0.6000E+02
   1.480  0.0000E+00  0.6000E+02
   1.490  0.0000E+00  0.6000E+02
   1.500  0.0000E+00  0.6000E+02
   1.510  0.0000E+00  0.6000E+02
   1.520  0.0000E+00  0.6000E+02
   1.530  0.0000E+00  0.6000E+02
   1.540  0.0000E+00  0.6000E+02
   1.550  0.0000E+00  0.6000E+02
   1.560  0.0000E+00  0.6000E+02
   1.570  0.0000E+00  0.6000E+02
   1.580  0.0000E+00  0.6000E+02
   1.590  0.0000E+00  0.6000E+02
   1.600  0.0000E+00  0.6000E+02
   1.610  0.0000E+00  0.6000E+02
   1.620  0.0000E+00  0.6000E+02
   1.630  0.0000E+00  0.6000E+02
   1.640  0.0000E+00  0.6000E+02
   1.650  0.0000E+00  0.6000E+02
   1.660  0.0000E+00  0.6000E+02
   1.670  0.0000E+00  0.6000E+02
   1.680  0.0000E+00  0.6000E+02
   1.690  0.0000E+00  0.6000E+02
   1.700  0.0000E+00  0.6000E+02
   1.710  0.0000E+00  0.6000E+02
   1.720  0.0000E+00  0.6000E+02
   1.730  0.0000E+00  0.6000E+02
   1.740  0.0000E+00  0.6000E+02
   1.750  0.0000E+00  0.6000E+02
   1.760  0.0000E+00  0.6000E+02
   1.770  0.0000E+00  0.6000E+02
   1.780  0.0000E+00  0.6000E+02
   1.790  0.0000E+00  0.6000E+02
   1.800  0.0000E+00  0.6000E+02
   1.810  0.0000E+00  0.6000E+02
   1.820  0.0000E+00  0.6000E+02
   1.830  0.0000E+00  0.6000E+02
   1.840  0.0000E+00  0.6000E+02
   1.850  0.0000E+00  0.6000E+02
   1.860  0.0000E+00  0.6000E+02
   1.870  0.0000E+00  0.6000E+02
   1.880  0.0000E+00  0.6000E+02
   1.890  0.0000E+00  0.6000E+02
   1.900  0.0000E+00  0.6000E+02
   1.910  0.0000E+00  0.6000E+02
   1.920  0.0000E+00  0.6000E+02
   1.930  0.0000E+00  0.6000E+02
   1.940  0.0000E+00  0.6000E+02
   1.950  0.0000E+00  0.6000E+02
   1.960  0.0000E+00  0.6000E+02
   1.970  0.0000E+00  0.6000E+02
   1.980  0.0000E+00  0.6000E+02
   1.990  0.0000E+00  0.6000E+02
   2.000  0.0000E+00  0.6000E+02
   2.010  0.0000E+00  0.6000E+02
   2.020  0.0000E+00  0.6000E+02
   2.030  0.0000E+00  0.6000E+02
   2.040  0.0000E+00  0.6000E+02
   2.050  0.0000E+00  0.6000E+02
   2.060  0.0000E+00  0.6000E+02
   2.070  0.0000E+00  0.6000E+02
   2.080  0.0000E+00  0.6000E+02
   2.090  0.0000E+00  0.6000E+02
   2.100  0.0000E+00  0.6000E+02
   2.110  0.0000E+00  0.6000E+02
   2.120  0.0000E+00  0.6000E+02
   2.130  0.0000E+00  0.6000E+02
   2.140  0.0000E+00  0.6000E+02
   2.150  0.0000E+00  0.6000E+02
   2.160  0.0000E+00  0.6000E+02
   2.170  0.0000E+00  0.6000E+02
   2.180  0.0000E+00  0.6000E+02
   2.190  0.0000E+00  0.6000E+02
   2.200  0.0000E+00  0.6000E+02
   2.210  0.0000E+00  0.6000E+02
   2.220  0.0000E+00  0.6000E+02
   2.230  0.0000E+00  0.6000E+02
   2.240  0.0000E+00  0.6000E+02
   2.250  0.0000E+00  0.6000E+02
   2.260  0.0000E+00  0.6000E+02
   2.270  0.0000E+00  0.6000E+02
   2.280  0.0000E+00  0.6000E+02
   2.290  0.0000E+00  0.6000E+02
   2.300  0.0000E+00  0.6000E+02
   2.310  0.0000E+00  0.6000E+02
   2.320  0.0000E+00  0.6000E+02
   2.330  0.0000E+00  0.6000E+02
   2.340  0.0000E+00  0.6000E+02
   2.350  0.0000E+00  0.6000E+02
   2.360  0.0000E+00  0.6000E+02
   2.370  0.0000E+00  0.6000E+02
   2.380  0.0000E+00  0.6000E+02
   2.390  0.0000E+00  0.6000E+02
   2.400  0.0000E+00  0.6000E+02
   2.410  0.0000E+00  0.6000E+02
   2.420  0.0000E+00  0.6000E+02
   2.430  0.0000E+00  0.6000E+02
   2.440  0.0000E+00  0.6000E+02
   2.450  0.0000E+00  0.6000E+02
   2.460  0.0000E+00  0.6000E+02
   2.470  0.0000E+00  0.6000E+02
   2.480  0.0000E+00  0.6000E+02
   2.490  0.0000E+00  0.6000E+02
   2.500  0.0000E+00  0.6000E+02
   2.510  0.0000E+00  0.6000E+02
   2.520  0.0000E+00  0.6000E+02
   2.530  0.0000E+00  0.6000E+02
   2.540  0.0000E+00  0.6000E+02
   2.550  0.0000E+00  0.6000E+02
   2.560  0.0000E+00  0.6000E+02
   2.570  0.0000E+00  0.6000E+02
   2.580  0.0000E+00  0.6000E+02
   2.590  0.0000E+00  0.6000E+02
   2.600  0.0000E+00  0.6000E+02
   2.610  0.0000E+00  0.6000E+02
   2.620  0.0000E+00  0.6000E+02
   2.630  0.0000E+00  0.6000E+02
   2.640  0.0000E+00  0.6000E+02
   2.650  0.0000E+00  0.6000E+02
   2.660  0.0000E+00  0.6000E+02
   2.670  0.0000E+00  0.6000E+02
   2.680  0.0000E+00  0.6000E+02
   2.690  0.0000E+00  0.6000E+02
   2.700  0.0000E+00  0.6000E+02
   2.710  0.0000E+00  0.6000E+02
   2.720  0.0000E+00  0.6000E+02
   2.730  0.0000E+00  0.6000E+02
   2.740  0.0000E+00  0.6000E+02
   2.750  0.0000E+00  0.6000E+02
   2.760  0.0000E+00  0.6000E+02
   2.770  0.0000E+00  0.6000E+02
   2.780  0.0000E+00  0.6000E+02
   2.790  0.0000E+00  0.6000E+02
   2.800  0.0000E+00  0.6000E+02
   2.810  0.0000E+00  0.6000E+02
   2.820  0.0000E+00  0.6000E+02
   2.830  0.0000E+00  0.6000E+02
   2.840  0.0000E+00  0.6000E+02
   2.850  0.0000E+00  0.6000E+02
   2.860  0.0000E+00  0.6000E+02
   2.870  0.0000E+00  0.6000E+02
   2.880  0.0000E+00  0.6000E+02
   2.890  0.0000E+00  0.6000E+02
   2.900  0.0000E+00  0.6000E+02
   2.910  0.0000E+00  0.6000E+02
   2.920  0.0000E+00  0.6000E+02
   2.930  0.0000E+00  0.6000E+02
   2.940  0.0000E+00  0.6000E+02
   2.950  0.0000E+00  0.6000E+02
   2.960  0.0000E+00  0.6000E+02
   2.970  0.0000E+00  0.6000E+02
   2.980  0.0000E+00  0.6000E+02
   2.990  0.0000E+00  0.6000E+02
   3.000  0.0000E+00  0.6000E+02
   3.010  0.0000E+00  0.6000E+02
   3.020  0.0000E+00  0.6000E+02
   3.030  0.0000E+00  0.6000E+02
   3.040  0.0000E+00  0.6000E+02
   3.050  0.0000E+00  0.6000E+02
   3.060  0.0000E+00  0.6000E+02
   3.070  0.0000E+00  0.6000E+02
   3.080  0.0000E+00  0.6000E+02
   3.090  0.0000E+00  0.6000E+02
   3.100  0.0000E+00  0.6000E+02
   3.110  0.0000E+00  0.6000E+02
   3.120  0.0000E+00  0.6000E+02
   3.130  0.0000E+00  0.6000E+02
   3.140  0.0000E+00  0.6000E+02
   3.150  0.1188E+01  0.6001E+02
   3.160  0.9429E+00  0.6002E+02
   3.170  0.1319E+01  0.6003E+02
   3.180  0.3870E+00  0.6004E+02
   3.190  0.3979E+00  0.6004E+02
   3.200  0.4088E+00  0.6005E+02
   3.210  0.4197E+00  0.6005E+02
   3.220  0.4306E+00  0.6005E+02
   3.230  0.4415E+00  0.6006E+02
   3.240  0.4524E+00  0.6006E+02
   3.250  0.4633E+00  0.6007E+02
   3.260  0.4742E+00  0.6007E+02
   3.270  0.4851E+00  0.6008E+02
   3.280  0.4960E+00  0.6008E+02
   3.290  0.5069E+00  0.6009E+02
   3.300  0.5178E+00  0.6009E+02
   3.310  0.5287E+00  0.6010E+02
   3.320  0.5396E+00  0.6010E+02
   3.330  0.5505E+00  0.6011E+02
   3.340  0.5614E+00  0.6011E+02
   3.350  0.5723E+00  0.6012E+02
   3.360  0.5832E+00  0.6013E+02
   3.370  0.5941E+00  0.6013E+02
   3.380  0.6050E+00  0.6014E+02
   3.390  0.6159E+00  0.6014E+02
   3.400  0.6268E+00  0.6015E+02
   3.410  0.6377E+00  0.6016E+02
   3.420  0.6486E+00  0.6016E+02
   3.430  0.6595E+00  0.6017E+02
   3.440  0.6704E+00  0.6018E+02
   3.450  0.6813E+00  0.6018E+02
   3.460  0.6922E+00  0.6019E+02
   3.470  0.7031E+00  0.6020E+02
   3.480  0.7140E+00  0.6020E+02
   3.490  0.7065E+00  0.6021E+02
   3.500  0.6925E+00  0.6022E+02
   3.510  0.6811E+00  0.6022E+02
   3.520  0.6633E+00  0.6023E+02
   3.530  0.6615E+00  0.6024E+02
   3.540  0.6663E+00  0.6024E+02
   3.550  0.6710E+00  0.6025E+02
   3.560  0.6758E+00  0.6026E+02
   3.570  0.6805E+00  0.6026E+02
   3.580  0.6853E+00  0.6027E+02
   3.590  0.6900E+00  0.6028E+02
   3.600  0.6948E+00  0.6029E+02
   3.610  0.6996E+00  0.6029E+02
   3.620  0.7043E+00  0.6030E+02
   3.630  0.7091E+00  0.6031E+02
   3.640  0.7138E+00  0.6031E+02
   3.650  0.7186E+00  0.6032E+02
   3.660  0.7233E+00  0.6033E+02
   3.670  0.7281E+00  0.6034E+02
   3.680  0.7328E+00  0.6034E+02
   3.690  0.7376E+00  0.6035E+02
   3.700  0.7423E+00  0.6036E+02
   3.710  0.7471E+00  0.6036E+02
   3.720  0.1487E+01  0.6038E+02
   3.730  0.1405E+01  0.6039E+02
   3.740  0.1481E+01  0.6041E+02
   3.750  0.1778E+01  0.6043E+02
   3.760  0.1247E+01  0.6045E+02
   3.770  0.1267E+01  0.6046E+02
   3.780  0.1287E+01  0.6047E+02
   3.790  0.1307E+01  0.6048E+02
   3.800  0.1327E+01  0.6050E+02
   3.810  0.1347E+01  0.6051E+02
   3.820  0.1368E+01  0.6052E+02
   3.830  0.1389E+01  0.6054E+02
   3.840  0.1411E+01  0.6055E+02
   3.850  0.1433E+01  0.6057E+02
   3.860  0.1455E+01  0.6058E+02
   3.870  0.1478E+01  0.6059E+02
   3.880  0.1500E+01  0.6061E+02
   3.890  0.1522E+01  0.6062E+02
   3.900  0.1544E+01  0.6064E+02
   3.910  0.1566E+01  0.6066E+02
   3.920  0.1589E+01  0.6067E+02
   3.930  0.1611E+01  0.6069E+02
   3.940  0.1633E+01  0.6070E+02
   3.950  0.1655E+01  0.6072E+02
   3.960  0.1708E+01  0.6074E+02
   3.970  0.1776E+01  0.6075E+02
   3.980  0.1833E+01  0.6077E+02
   3.990  0.1893E+01  0.6079E+02
   4.000  0.1949E+01  0.6081E+02
   4.010  0.1991E+01  0.6083E+02
   4.020  0.2021E+01  0.6085E+02
   4.030  0.2051E+01  0.6087E+02
   4.040  0.2080E+01  0.6089E+02
   4.050  0.2109E+01  0.6091E+02
   4.060  0.2139E+01  0.6093E+02
   4.070  0.2171E+01  0.6095E+02
   4.080  0.2203E+01  0.6098E+02
   4.090  0.2235E+01  0.6100E+02
   4.100  0.2267E+01  0.6102E+02
   4.110  0.2298E+01  0.6104E+02
   4.120  0.2330E+01  0.6107E+02
   4.130  0.2362E+01  0.6109E+02
   4.140  0.2394E+01  0.6111E+02
   4.150  0.2426E+01  0.6114E+02
   4.160  0.2458E+01  0.6116E+02
   4.170  0.2490E+01  0.6119E+02
   4.180  0.2521E+01  0.6121E+02
   4.190  0.2553E+01  0.6124E+02
   4.200  0.2585E+01  0.6126E+02
   4.210  0.2617E+01  0.6129E+02
   4.220  0.2649E+01  0.6132E+02
   4.230  0.2681E+01  0.6134E+02
   4.240  0.3490E+01  0.6138E+02
   4.250  0.4001E+01  0.6142E+02
   4.260  0.3730E+01  0.6146E+02
   4.270  0.3823E+01  0.6149E+02
   4.280  0.3368E+01  0.6154E+02
   4.290  0.2884E+01  0.6157E+02
   4.300  0.2936E+01  0.6160E+02
   4.310  0.3049E+01  0.6163E+02
   4.320  0.3141E+01  0.6166E+02
   4.330  0.3242E+01  0.6169E+02
   4.340  0.3395E+01  0.6173E+02
   4.350  0.3478E+01  0.6176E+02
   4.360  0.3601E+01  0.6180E+02
   4.370  0.3644E+01  0.6183E+02
   4.380  0.3687E+01  0.6187E+02
   4.390  0.3730E+01  0.6191E+02
   4.400  0.3773E+01  0.6194E+02
   4.410  0.3816E+01  0.6198E+02
   4.420  0.4293E+01  0.6203E+02
   4.430  0.4207E+01  0.6207E+02
   4.440  0.4630E+01  0.6212E+02
   4.450  0.4731E+01  0.6217E+02
   4.460  0.3904E+01  0.6222E+02
   4.470  0.4096E+01  0.6226E+02
   4.480  0.3298E+01  0.6230E+02
   4.490  0.3266E+01  0.6233E+02
   4.500  0.3234E+01  0.6236E+02
   4.510  0.3190E+01  0.6239E+02
   4.520  0.3137E+01  0.6243E+02
   4.530  0.3095E+01  0.6246E+02
   4.540  0.3059E+01  0.6249E+02
   4.550  0.3025E+01  0.6252E+02
   4.560  0.2991E+01  0.6255E+02
   4.570  0.2953E+01  0.6258E+02
   4.580  0.2918E+01  0.6261E+02
   4.590  0.2891E+01  0.6264E+02
   4.600  0.2862E+01  0.6267E+02
   4.610  0.2832E+01  0.6269E+02
   4.620  0.2801E+01  0.6272E+02
   4.630  0.2766E+01  0.6275E+02
   4.640  0.2728E+01  0.6278E+02
   4.650  0.2691E+01  0.6280E+02
   4.660  0.2644E+01  0.6283E+02
   4.670  0.2602E+01  0.6286E+02
   4.680  0.2545E+01  0.6288E+02
   4.690  0.2500E+01  0.6291E+02
   4.700  0.2458E+01  0.6293E+02
   4.710  0.2420E+01  0.6296E+02
   4.720  0.2380E+01  0.6298E+02
   4.730  0.2340E+01  0.6300E+02
   4.740  0.2306E+01  0.6303E+02
   4.750  0.2292E+01  0.6305E+02
   4.760  0.2279E+01  0.6307E+02
   4.770  0.2267E+01  0.6310E+02
   4.780  0.2255E+01  0.6312E+02
   4.790  0.2244E+01  0.6314E+02
   4.800  0.2232E+01  0.6316E+02
   4.810  0.2221E+01  0.6319E+02
   4.820  0.2209E+01  0.6321E+02
   4.830  0.3300E+01  0.6324E+02
   4.840  0.3139E+01  0.6327E+02
   4.850  0.3532E+01  0.6330E+02
   4.860  0.2789E+01  0.6334E+02
   4.870  0.2912E+01  0.6337E+02
   4.880  0.3032E+01  0.6340E+02
   4.890  0.3116E+01  0.6343E+02
   4.900  0.3185E+01  0.6346E+02
   4.910  0.3256E+01  0.6349E+02
   4.920  0.3333E+01  0.6352E+02
   4.930  0.3451E+01  0.6356E+02
   4.940  0.3471E+01  0.6359E+02
   4.950  0.3432E+01  0.6363E+02
   4.960  0.3395E+01  0.6366E+02
   4.970  0.3359E+01  0.6370E+02
   4.980  0.3327E+01  0.6373E+02
   4.990  0.4460E+01  0.6380E+02
   5.000  0.4536E+01  0.6385E+02
   5.010  0.4612E+01  0.6390E+02
   5.020  0.5493E+01  0.6395E+02
   5.030  0.6452E+01  0.6404E+02
   5.040  0.6745E+01  0.6410E+02
   5.050  0.5836E+01  0.6417E+02
   5.060  0.7897E+01  0.6423E+02
   5.070  0.1097E+02  0.6432E+02
   5.080  0.1346E+02  0.6445E+02
   5.090  0.3568E+02  0.6478E+02
   5.100  0.1870E+02  0.6498E+02
   5.110  0.1848E+02  0.6517E+02
   5.120  0.1770E+02  0.6535E+02
   5.130  0.1485E+02  0.6552E+02
   5.140  0.1744E+02  0.6566E+02
   5.150  0.1017E+02  0.6580E+02
   5.160  0.1394E+02  0.6595E+02
   5.170  0.1349E+02  0.6610E+02
   5.180  0.1236E+02  0.6623E+02
   5.190  0.1167E+02  0.6635E+02
   5.200  0.1075E+02  0.6646E+02
   5.210  0.9401E+01  0.6656E+02
   5.220  0.9208E+01  0.6665E+02
   5.230  0.1044E+02  0.6675E+02
   5.240  0.9012E+01  0.6685E+02
   5.250  0.8704E+01  0.6694E+02
   5.260  0.8496E+01  0.6702E+02
   5.270  0.8350E+01  0.6711E+02
   5.280  0.8213E+01  0.6719E+02
   5.290  0.8741E+01  0.6728E+02
   5.300  0.8289E+01  0.6737E+02
   5.310  0.7292E+01  0.6745E+02
   5.320  0.7171E+01  0.6752E+02
   5.330  0.8379E+01  0.6760E+02
   5.340  0.8352E+01  0.6771E+02
   5.350  0.6666E+01  0.6778E+02
   5.360  0.6880E+01  0.6785E+02
   5.370  0.7175E+01  0.6792E+02
   5.380  0.8117E+01  0.6800E+02
   5.390  0.9748E+01  0.6808E+02
   5.400  0.7974E+01  0.6817E+02
   5.410  0.1500E+02  0.6829E+02
   5.420  0.1218E+02  0.6843E+02
   5.430  0.9872E+01  0.6853E+02
   5.440  0.8899E+01  0.6863E+02
   5.450  0.8344E+01  0.6871E+02
   5.460  0.6700E+01  0.6880E+02
   5.470  0.6671E+01  0.6886E+02
   5.480  0.6643E+01  0.6893E+02
   5.490  0.6615E+01  0.6900E+02
   5.500  0.6599E+01  0.6906E+02
   5.510  0.6615E+01  0.6913E+02
   5.520  0.6629E+01  0.6919E+02
   5.530  0.8296E+01  0.6928E+02
   5.540  0.9025E+01  0.6937E+02
   5.550  0.9424E+01  0.6947E+02
   5.560  0.9715E+01  0.6956E+02
   5.570  0.1149E+02  0.6966E+02
   5.580  0.1132E+02  0.6978E+02
   5.590  0.1081E+02  0.6989E+02
   5.600  0.1219E+02  0.7000E+02
   5.610  0.2371E+02  0.7017E+02
   5.620  0.1168E+02  0.7043E+02
   5.630  0.1393E+02  0.7057E+02
   5.640  0.1452E+02  0.7071E+02
   5.650  0.1367E+02  0.7086E+02
   5.660  0.1443E+02  0.7100E+02
   5.670  0.1882E+02  0.7116E+02
   5.680  0.1750E+02  0.7137E+02
   5.690  0.1396E+02  0.7152E+02
   5.700  0.1354E+02  0.7165E+02
   5.710  0.1310E+02  0.7179E+02
   5.720  0.1264E+02  0.7192E+02
   5.730  0.1272E+02  0.7205E+02
   5.740  0.1196E+02  0.7219E+02
   5.750  0.1103E+02  0.7230E+02
   5.760  0.5632E+01  0.7244E+02
   5.770  0.4884E+01  0.7249E+02
   5.780  0.4136E+01  0.7254E+02
   5.790  0.3322E+01  0.7258E+02
   5.800  0.2284E+01  0.7260E+02
   5.810  0.1608E+01  0.7262E+02
   5.820  0.1405E+01  0.7264E+02
   5.830  0.1406E+01  0.7265E+02
   5.840  0.1406E+01  0.7266E+02
   5.850  0.1406E+01  0.7268E+02
   5.860  0.1406E+01  0.7269E+02
   5.870  0.1406E+01  0.7271E+02
   5.880  0.1406E+01  0.7272E+02
   5.890  0.1750E+01  0.7274E+02
   5.900  0.2382E+01  0.7276E+02
   5.910  0.2562E+01  0.7278E+02
   5.920  0.2743E+01  0.7281E+02
   5.930  0.2924E+01  0.7284E+02
   5.940  0.3105E+01  0.7287E+02
   5.950  0.3285E+01  0.7290E+02
   5.960  0.3466E+01  0.7293E+02
   5.970  0.3647E+01  0.7297E+02
   5.980  0.3824E+01  0.7301E+02
   5.990  0.4011E+01  0.7304E+02
   6.000  0.4534E+01  0.7309E+02
   6.010  0.4961E+01  0.7314E+02
   6.020  0.4980E+01  0.7319E+02
   6.030  0.4999E+01  0.7324E+02
   6.040  0.5019E+01  0.7329E+02
   6.050  0.5038E+01  0.7334E+02
   6.060  0.5057E+01  0.7339E+02
   6.070  0.5076E+01  0.7344E+02
   6.080  0.5095E+01  0.7349E+02
   6.090  0.5114E+01  0.7354E+02
   6.100  0.5136E+01  0.7359E+02
   6.110  0.5463E+01  0.7365E+02
   6.120  0.5865E+01  0.7371E+02
   6.130  0.5997E+01  0.7377E+02
   6.140  0.6122E+01  0.7383E+02
   6.150  0.6181E+01  0.7389E+02
   6.160  0.6169E+01  0.7395E+02
   6.170  0.6087E+01  0.7401E+02
   6.180  0.6068E+01  0.7407E+02
   6.190  0.5899E+01  0.7413E+02
   6.200  0.5812E+01  0.7419E+02
   6.210  0.6483E+01  0.7426E+02
   6.220  0.6539E+01  0.7433E+02
   6.230  0.6225E+01  0.7439E+02
   6.240  0.6209E+01  0.7445E+02
   6.250  0.6194E+01  0.7452E+02
   6.260  0.7413E+01  0.7460E+02
   6.270  0.7184E+01  0.7470E+02
   6.280  0.7215E+01  0.7477E+02
   6.290  0.7097E+01  0.7484E+02
   6.300  0.6396E+01  0.7494E+02
   6.310  0.6736E+01  0.7501E+02
   6.320  0.7095E+01  0.7508E+02
   6.330  0.9611E+01  0.7519E+02
   6.340  0.1068E+02  0.7529E+02
   6.350  0.1628E+02  0.7542E+02
   6.360  0.1503E+02  0.7557E+02
   6.370  0.1883E+02  0.7575E+02
   6.380  0.2018E+02  0.7594E+02
   6.390  0.1916E+02  0.7614E+02
   6.400  0.1836E+02  0.7633E+02
   6.410  0.1697E+02  0.7650E+02
   6.420  0.1358E+02  0.7666E+02
   6.430  0.1577E+02  0.7680E+02
   6.440  0.2367E+02  0.7702E+02
   6.450  0.2520E+02  0.7728E+02
   6.460  0.1989E+02  0.7751E+02
   6.470  0.2040E+02  0.7771E+02
   6.480  0.2371E+02  0.7793E+02
   6.490  0.2261E+02  0.7819E+02
   6.500  0.1488E+02  0.7839E+02
   6.510  0.1449E+02  0.7854E+02
   6.520  0.1493E+02  0.7868E+02
   6.530  0.1571E+02  0.7884E+02
   6.540  0.1820E+02  0.7900E+02
   6.550  0.1892E+02  0.7919E+02
   6.560  0.3533E+02  0.7938E+02
   6.570  0.1303E+02  0.7953E+02
   6.580  0.1236E+02  0.7966E+02
   6.590  0.1197E+02  0.7978E+02
   6.600  0.1172E+02  0.7990E+02
   6.610  0.1131E+02  0.8001E+02
   6.620  0.1044E+02  0.8012E+02
   6.630  0.1068E+02  0.8024E+02
   6.640  0.1049E+02  0.8034E+02
   6.650  0.1052E+02  0.8045E+02
   6.660  0.1133E+02  0.8056E+02
   6.670  0.1184E+02  0.8067E+02
   6.680  0.1859E+02  0.8082E+02
   6.690  0.2142E+02  0.8106E+02
   6.700  0.1691E+02  0.8125E+02
   6.710  0.1425E+02  0.8141E+02
   6.720  0.1265E+02  0.8156E+02
   6.730  0.1201E+02  0.8168E+02
   6.740  0.1217E+02  0.8181E+02
   6.750  0.1220E+02  0.8194E+02
   6.760  0.1259E+02  0.8206E+02
   6.770  0.1297E+02  0.8219E+02
   6.780  0.1275E+02  0.8232E+02
   6.790  0.1303E+02  0.8245E+02
   6.800  0.1335E+02  0.8258E+02
   6.810  0.1270E+02  0.8271E+02
   6.820  0.1203E+02  0.8284E+02
   6.830  0.1164E+02  0.8295E+02
   6.840  0.1108E+02  0.8307E+02
   6.850  0.1094E+02  0.8318E+02
   6.860  0.1087E+02  0.8329E+02
   6.870  0.1472E+02  0.8341E+02
   6.880  0.1250E+02  0.8354E+02
   6.890  0.1211E+02  0.8366E+02
   6.900  0.1301E+02  0.8378E+02
   6.910  0.1443E+02  0.8392E+02
   6.920  0.1817E+02  0.8408E+02
   6.930  0.1995E+02  0.8427E+02
   6.940  0.2070E+02  0.8448E+02
   6.950  0.1294E+02  0.8468E+02
   6.960  0.1331E+02  0.8481E+02
   6.970  0.1345E+02  0.8495E+02
   6.980  0.1825E+02  0.8508E+02
   6.990  0.7711E+01  0.8519E+02
   7.000  0.7414E+01  0.8527E+02
   7.010  0.6970E+01  0.8534E+02
   7.020  0.6600E+01  0.8541E+02
   7.030  0.6292E+01  0.8547E+02
   7.040  0.6022E+01  0.8554E+02
   7.050  0.5754E+01  0.8560E+02
   7.060  0.5632E+01  0.8565E+02
   7.070  0.5473E+01  0.8571E+02
   7.080  0.5344E+01  0.8576E+02
   7.090  0.5250E+01  0.8582E+02
   7.100  0.5132E+01  0.8587E+02
   7.110  0.7399E+01  0.8593E+02
   7.120  0.9136E+01  0.8605E+02
   7.130  0.8271E+01  0.8614E+02
   7.140  0.8174E+01  0.8622E+02
   7.150  0.7782E+01  0.8630E+02
   7.160  0.7513E+01  0.8638E+02
   7.170  0.8498E+01  0.8647E+02
   7.180  0.8960E+01  0.8655E+02
   7.190  0.9929E+01  0.8665E+02
   7.200  0.8986E+01  0.8674E+02
   7.210  0.7552E+01  0.8682E+02
   7.220  0.7302E+01  0.8690E+02
   7.230  0.7125E+01  0.8697E+02
   7.240  0.6964E+01  0.8704E+02
   7.250  0.6703E+01  0.8711E+02
   7.260  0.6123E+01  0.8717E+02
   7.270  0.5841E+01  0.8723E+02
   7.280  0.5598E+01  0.8729E+02
   7.290  0.5596E+01  0.8735E+02
   7.300  0.5556E+01  0.8741E+02
   7.310  0.5505E+01  0.8746E+02
   7.320  0.5513E+01  0.8752E+02
   7.330  0.5629E+01  0.8758E+02
   7.340  0.5878E+01  0.8763E+02
   7.350  0.6284E+01  0.8769E+02
   7.360  0.6639E+01  0.8776E+02
   7.370  0.6818E+01  0.8783E+02
   7.380  0.7022E+01  0.8789E+02
   7.390  0.7287E+01  0.8797E+02
   7.400  0.8924E+01  0.8805E+02
   7.410  0.7453E+01  0.8815E+02
   7.420  0.8704E+01  0.8823E+02
   7.430  0.9154E+01  0.8832E+02
   7.440  0.9170E+01  0.8841E+02
   7.450  0.8725E+01  0.8850E+02
   7.460  0.9790E+01  0.8860E+02
   7.470  0.1418E+02  0.8871E+02
   7.480  0.1157E+02  0.8882E+02
   7.490  0.1207E+02  0.8894E+02
   7.500  0.1174E+02  0.8907E+02
   7.510  0.1154E+02  0.8918E+02
   7.520  0.1135E+02  0.8930E+02
   7.530  0.1083E+02  0.8942E+02
   7.540  0.1138E+02  0.8953E+02
   7.550  0.1125E+02  0.8965E+02
   7.560  0.1113E+02  0.8976E+02
   7.570  0.1095E+02  0.8987E+02
   7.580  0.1077E+02  0.8998E+02
   7.590  0.1064E+02  0.9008E+02
   7.600  0.1148E+02  0.9019E+02
   7.610  0.9441E+01  0.9032E+02
   7.620  0.1023E+02  0.9042E+02
   7.630  0.1076E+02  0.9052E+02
   7.640  0.1092E+02  0.9063E+02
   7.650  0.1097E+02  0.9074E+02
   7.660  0.1070E+02  0.9085E+02
   7.670  0.9606E+01  0.9095E+02
   7.680  0.9215E+01  0.9105E+02
   7.690  0.1066E+02  0.9114E+02
   7.700  0.1276E+02  0.9126E+02
   7.710  0.1411E+02  0.9140E+02
   7.720  0.1516E+02  0.9154E+02
   7.730  0.1533E+02  0.9169E+02
   7.740  0.1478E+02  0.9185E+02
   7.750  0.1575E+02  0.9201E+02
   7.760  0.1667E+02  0.9218E+02
   7.770  0.1606E+02  0.9234E+02
   7.780  0.1583E+02  0.9250E+02
   7.790  0.1513E+02  0.9266E+02
   7.800  0.1483E+02  0.9281E+02
   7.810  0.1482E+02  0.9296E+02
   7.820  0.1486E+02  0.9311E+02
   7.830  0.1635E+02  0.9327E+02
   7.840  0.1681E+02  0.9344E+02
   7.850  0.1688E+02  0.9363E+02
   7.860  0.1686E+02  0.9380E+02
   7.870  0.1599E+02  0.9397E+02
   7.880  0.1631E+02  0.9413E+02
   7.890  0.1675E+02  0.9430E+02
   7.900  0.1929E+02  0.9447E+02
   7.910  0.2007E+02  0.9467E+02
   7.920  0.1974E+02  0.9488E+02
   7.930  0.1927E+02  0.9508E+02
   7.940  0.1719E+02  0.9527E+02
   7.950  0.2315E+02  0.9547E+02
   7.960  0.2257E+02  0.9571E+02
   7.970  0.2340E+02  0.9594E+02
   7.980  0.2442E+02  0.9618E+02
   7.990  0.1997E+02  0.9639E+02
   8.000  0.1754E+02  0.9658E+02
   8.010  0.1733E+02  0.9675E+02
   8.020  0.1948E+02  0.9694E+02
   8.030  0.1828E+02  0.9715E+02
   8.040  0.1929E+02  0.9734E+02
   8.050  0.3048E+02  0.9757E+02
   8.060  0.2627E+02  0.9787E+02
   8.070  0.2616E+02  0.9813E+02
   8.080  0.1460E+02  0.9834E+02
   8.090  0.1150E+02  0.9847E+02
   8.100  0.9063E+01  0.9858E+02
   8.110  0.1003E+02  0.9868E+02
   8.120  0.7049E+01  0.9876E+02
   8.130  0.1792E+02  0.9895E+02
   8.140  0.2351E+02  0.9916E+02
   8.150  0.2811E+02  0.9942E+02
   8.160  0.2963E+02  0.9972E+02
   8.170  0.3116E+02  0.1000E+03
   8.180  0.1709E+02  0.1003E+03
   8.190  0.1610E+02  0.1004E+03
   8.200  0.2263E+02  0.1007E+03
   8.210  0.2145E+02  0.1009E+03
   8.220  0.2096E+02  0.1011E+03
   8.230  0.2041E+02  0.1013E+03
   8.240  0.2165E+02  0.1015E+03
   8.250  0.2214E+02  0.1018E+03
   8.260  0.2177E+02  0.1020E+03
   8.270  0.2583E+02  0.1022E+03
   8.280  0.2413E+02  0.1025E+03
   8.290  0.2294E+02  0.1027E+03
   8.300  0.2134E+02  0.1029E+03
   8.310  0.1930E+02  0.1032E+03
   8.320  0.1527E+02  0.1034E+03
   8.330  0.1345E+02  0.1035E+03
   8.340  0.1309E+02  0.1037E+03
   8.350  0.1298E+02  0.1038E+03
   8.360  0.1219E+02  0.1039E+03
   8.370  0.1197E+02  0.1040E+03
   8.380  0.1187E+02  0.1042E+03
   8.390  0.1064E+02  0.1043E+03
   8.400  0.1021E+02  0.1044E+03
   8.410  0.9644E+01  0.1045E+03
   8.420  0.9041E+01  0.1046E+03
   8.430  0.8944E+01  0.1047E+03
   8.440  0.8365E+01  0.1048E+03
   8.450  0.7942E+01  0.1048E+03
   8.460  0.7269E+01  0.1049E+03
   8.470  0.6931E+01  0.1050E+03
   8.480  0.7344E+01  0.1051E+03
   8.490  0.7535E+01  0.1051E+03
   8.500  0.7761E+01  0.1052E+03
   8.510  0.8506E+01  0.1053E+03
   8.520  0.9249E+01  0.1054E+03
   8.530  0.9687E+01  0.1055E+03
   8.540  0.9890E+01  0.1056E+03
   8.550  0.1116E+02  0.1057E+03
   8.560  0.1122E+02  0.1058E+03
   8.570  0.1151E+02  0.1059E+03
   8.580  0.1167E+02  0.1061E+03
   8.590  0.1183E+02  0.1062E+03
   8.600  0.1178E+02  0.1063E+03
   8.610  0.1179E+02  0.1064E+03
   8.620  0.1636E+02  0.1065E+03
   8.630  0.1226E+02  0.1067E+03
   8.640  0.1118E+02  0.1068E+03
   8.650  0.1107E+02  0.1069E+03
   8.660  0.1130E+02  0.1070E+03
   8.670  0.1217E+02  0.1071E+03
   8.680  0.1094E+02  0.1072E+03
   8.690  0.1039E+02  0.1074E+03
   8.700  0.1035E+02  0.1075E+03
   8.710  0.1036E+02  0.1076E+03
   8.720  0.1039E+02  0.1077E+03
   8.730  0.1041E+02  0.1078E+03
   8.740  0.1058E+02  0.1079E+03
   8.750  0.1133E+02  0.1080E+03
   8.760  0.1194E+02  0.1081E+03
   8.770  0.1230E+02  0.1082E+03
   8.780  0.1393E+02  0.1084E+03
   8.790  0.1633E+02  0.1085E+03
   8.800  0.1539E+02  0.1087E+03
   8.810  0.1558E+02  0.1088E+03
   8.820  0.1556E+02  0.1090E+03
   8.830  0.1587E+02  0.1092E+03
   8.840  0.1620E+02  0.1093E+03
   8.850  0.1656E+02  0.1095E+03
   8.860  0.1703E+02  0.1097E+03
   8.870  0.1725E+02  0.1098E+03
   8.880  0.1742E+02  0.1100E+03
   8.890  0.1860E+02  0.1102E+03
   8.900  0.1932E+02  0.1104E+03
   8.910  0.1852E+02  0.1106E+03
   8.920  0.1659E+02  0.1108E+03
   8.930  0.1463E+02  0.1110E+03
   8.940  0.1450E+02  0.1111E+03
   8.950  0.1435E+02  0.1113E+03
   8.960  0.1403E+02  0.1114E+03
   8.970  0.1351E+02  0.1116E+03
   8.980  0.1313E+02  0.1117E+03
   8.990  0.1356E+02  0.1118E+03
   9.000  0.1389E+02  0.1120E+03
   9.010  0.1422E+02  0.1121E+03
   9.020  0.1426E+02  0.1123E+03
   9.030  0.1494E+02  0.1124E+03
   9.040  0.1513E+02  0.1126E+03
   9.050  0.1528E+02  0.1127E+03
   9.060  0.1551E+02  0.1129E+03
   9.070  0.1561E+02  0.1130E+03
   9.080  0.1592E+02  0.1132E+03
   9.090  0.1610E+02  0.1133E+03
   9.100  0.1658E+02  0.1135E+03
   9.110  0.1845E+02  0.1137E+03
   9.120  0.1905E+02  0.1139E+03
   9.130  0.1856E+02  0.1141E+03
   9.140  0.1875E+02  0.1143E+03
   9.150  0.1865E+02  0.1145E+03
   9.160  0.2038E+02  0.1147E+03
   9.170  0.1965E+02  0.1149E+03
   9.180  0.2116E+02  0.1151E+03
   9.190  0.1927E+02  0.1153E+03
   9.200  0.1853E+02  0.1155E+03
   9.210  0.1796E+02  0.1157E+03
   9.220  0.1808E+02  0.1159E+03
   9.230  0.1633E+02  0.1161E+03
   9.240  0.1354E+02  0.1163E+03
   9.250  0.1083E+02  0.1164E+03
   9.260  0.1072E+02  0.1165E+03
   9.270  0.1089E+02  0.1166E+03
   9.280  0.1108E+02  0.1167E+03
   9.290  0.1018E+02  0.1169E+03
   9.300  0.1127E+02  0.1170E+03
   9.310  0.1548E+02  0.1171E+03
   9.320  0.2594E+02  0.1174E+03
   9.330  0.2285E+02  0.1176E+03
   9.340  0.1800E+02  0.1178E+03
   9.350  0.1881E+02  0.1180E+03
   9.360  0.1625E+02  0.1182E+03
   9.370  0.1629E+02  0.1184E+03
   9.380  0.1422E+02  0.1185E+03
   9.390  0.1422E+02  0.1187E+03
   9.400  0.1520E+02  0.1188E+03
   9.410  0.1569E+02  0.1190E+03
   9.420  0.1603E+02  0.1191E+03
   9.430  0.1615E+02  0.1193E+03
   9.440  0.1643E+02  0.1194E+03
   9.450  0.1323E+02  0.1196E+03
   9.460  0.9246E+01  0.1197E+03
   9.470  0.1019E+02  0.1198E+03
   9.480  0.1186E+02  0.1199E+03
   9.490  0.1464E+02  0.1200E+03
   9.500  0.1640E+02  0.1202E+03
   9.510  0.1572E+02  0.1204E+03
   9.520  0.1602E+02  0.1205E+03
   9.530  0.8701E+01  0.1207E+03
   9.540  0.7639E+01  0.1208E+03
   9.550  0.6999E+01  0.1208E+03
   9.560  0.6761E+01  0.1209E+03
   9.570  0.6523E+01  0.1210E+03
   9.580  0.6285E+01  0.1210E+03
   9.590  0.6046E+01  0.1211E+03
   9.600  0.6089E+01  0.1212E+03
   9.610  0.8110E+01  0.1212E+03
   9.620  0.9171E+01  0.1213E+03
   9.630  0.1043E+02  0.1214E+03
   9.640  0.9591E+01  0.1216E+03
   9.650  0.8704E+01  0.1217E+03
   9.660  0.7920E+01  0.1217E+03
   9.670  0.1036E+02  0.1218E+03
   9.680  0.1347E+02  0.1220E+03
   9.690  0.1199E+02  0.1221E+03
   9.700  0.1056E+02  0.1222E+03
   9.710  0.1206E+02  0.1223E+03
   9.720  0.5778E+01  0.1224E+03
   9.730  0.5846E+01  0.1225E+03
   9.740  0.4939E+01  0.1225E+03
   9.750  0.4833E+01  0.1226E+03
   9.760  0.4728E+01  0.1226E+03
   9.770  0.4622E+01  0.1227E+03
   9.780  0.9386E+01  0.1227E+03
   9.790  0.2813E+01  0.1228E+03
   9.800  0.2611E+01  0.1228E+03
   9.810  0.2470E+01  0.1228E+03
   9.820  0.2337E+01  0.1229E+03
   9.830  0.2162E+01  0.1229E+03
   9.840  0.1922E+01  0.1229E+03
   9.850  0.1925E+01  0.1229E+03
   9.860  0.1929E+01  0.1229E+03
   9.870  0.1932E+01  0.1230E+03
   9.880  0.1936E+01  0.1230E+03
   9.890  0.1939E+01  0.1230E+03
   9.900  0.1943E+01  0.1230E+03
   9.910  0.1946E+01  0.1230E+03
   9.920  0.1950E+01  0.1231E+03
   9.930  0.1953E+01  0.1231E+03
   9.940  0.1957E+01  0.1231E+03
   9.950  0.1960E+01  0.1231E+03
   9.960  0.1964E+01  0.1231E+03
   9.970  0.1967E+01  0.1232E+03
   9.980  0.1971E+01  0.1232E+03
   9.990  0.1974E+01  0.1232E+03
  10.000  0.1978E+01  0.1232E+03
  10.010  0.1981E+01  0.1232E+03
  10.020  0.2121E+01  0.1233E+03
  10.030  0.2351E+01  0.1233E+03
  10.040  0.2548E+01  0.1233E+03
  10.050  0.2727E+01  0.1233E+03
  10.060  0.2896E+01  0.1234E+03
  10.070  0.3081E+01  0.1234E+03
  10.080  0.3557E+01  0.1234E+03
  10.090  0.3780E+01  0.1235E+03
  10.100  0.3918E+01  0.1235E+03
  10.110  0.3587E+01  0.1235E+03
  10.120  0.3526E+01  0.1236E+03
  10.130  0.3283E+01  0.1236E+03
  10.140  0.2597E+01  0.1237E+03
  10.150  0.2453E+01  0.1237E+03
  10.160  0.1861E+01  0.1237E+03
  10.170  0.1850E+01  0.1237E+03
  10.180  0.1840E+01  0.1237E+03
  10.190  0.1830E+01  0.1238E+03
  10.200  0.1820E+01  0.1238E+03
  10.210  0.1809E+01  0.1238E+03
  10.220  0.1799E+01  0.1238E+03
  10.230  0.1789E+01  0.1238E+03
  10.240  0.1779E+01  0.1238E+03
  10.250  0.1769E+01  0.1239E+03
  10.260  0.1758E+01  0.1239E+03
  10.270  0.1748E+01  0.1239E+03
  10.280  0.1738E+01  0.1239E+03
  10.290  0.1728E+01  0.1239E+03
  10.300  0.1718E+01  0.1240E+03
  10.310  0.1707E+01  0.1240E+03
  10.320  0.1698E+01  0.1240E+03
  10.330  0.1692E+01  0.1240E+03
  10.340  0.1686E+01  0.1240E+03
  10.350  0.1681E+01  0.1240E+03
  10.360  0.1675E+01  0.1241E+03
  10.370  0.1670E+01  0.1241E+03
  10.380  0.1664E+01  0.1241E+03
  10.390  0.1659E+01  0.1241E+03
  10.400  0.1653E+01  0.1241E+03
  10.410  0.1647E+01  0.1241E+03
  10.420  0.1642E+01  0.1242E+03
  10.430  0.1636E+01  0.1242E+03
  10.440  0.1631E+01  0.1242E+03
  10.450  0.1625E+01  0.1242E+03
  10.460  0.1620E+01  0.1242E+03
  10.470  0.1614E+01  0.1242E+03
  10.480  0.1608E+01  0.1242E+03
  10.490  0.1603E+01  0.1243E+03
  10.500  0.1597E+01  0.1243E+03
  10.510  0.1566E+01  0.1243E+03
  10.520  0.1512E+01  0.1243E+03
  10.530  0.1500E+01  0.1243E+03
  10.540  0.1497E+01  0.1243E+03
  10.550  0.1493E+01  0.1244E+03
  10.560  0.1490E+01  0.1244E+03
  10.570  0.1486E+01  0.1244E+03
  10.580  0.1483E+01  0.1244E+03
  10.590  0.1479E+01  0.1244E+03
  10.600  0.1476E+01  0.1244E+03
  10.610  0.1472E+01  0.1244E+03
  10.620  0.1468E+01  0.1245E+03
  10.630  0.1463E+01  0.1245E+03
  10.640  0.1457E+01  0.1245E+03
  10.650  0.1450E+01  0.1245E+03
  10.660  0.1444E+01  0.1245E+03
  10.670  0.1437E+01  0.1245E+03
  10.680  0.1430E+01  0.1245E+03
  10.690  0.1424E+01  0.1246E+03
  10.700  0.1411E+01  0.1246E+03
  10.710  0.1372E+01  0.1246E+03
  10.720  0.1341E+01  0.1246E+03
  10.730  0.1335E+01  0.1246E+03
  10.740  0.1328E+01  0.1246E+03
  10.750  0.1321E+01  0.1246E+03
  10.760  0.1314E+01  0.1247E+03
  10.770  0.1308E+01  0.1247E+03
  10.780  0.1301E+01  0.1247E+03
  10.790  0.1294E+01  0.1247E+03
  10.800  0.1287E+01  0.1247E+03
  10.810  0.1281E+01  0.1247E+03
  10.820  0.1274E+01  0.1247E+03
  10.830  0.1267E+01  0.1247E+03
  10.840  0.1256E+01  0.1248E+03
  10.850  0.1243E+01  0.1248E+03
  10.860  0.1232E+01  0.1248E+03
  10.870  0.1223E+01  0.1248E+03
  10.880  0.1216E+01  0.1248E+03
  10.890  0.1209E+01  0.1248E+03
  10.900  0.1202E+01  0.1248E+03
  10.910  0.1195E+01  0.1248E+03
  10.920  0.1188E+01  0.1249E+03
  10.930  0.1181E+01  0.1249E+03
  10.940  0.1173E+01  0.1249E+03
  10.950  0.1166E+01  0.1249E+03
  10.960  0.1159E+01  0.1249E+03
  10.970  0.1152E+01  0.1249E+03
  10.980  0.1145E+01  0.1249E+03
  10.990  0.1138E+01  0.1249E+03
  11.000  0.1131E+01  0.1250E+03
  11.010  0.1124E+01  0.1250E+03
  11.020  0.1116E+01  0.1250E+03
  11.030  0.1109E+01  0.1250E+03
  11.040  0.1102E+01  0.1250E+03
  11.050  0.1095E+01  0.1250E+03
  11.060  0.1088E+01  0.1250E+03
  11.070  0.1081E+01  0.1250E+03
  11.080  0.1074E+01  0.1250E+03
  11.090  0.1067E+01  0.1250E+03
  11.100  0.1059E+01  0.1251E+03
  11.110  0.1052E+01  0.1251E+03
  11.120  0.1045E+01  0.1251E+03
  11.130  0.1038E+01  0.1251E+03
  11.140  0.1031E+01  0.1251E+03
  11.150  0.1024E+01  0.1251E+03
  11.160  0.1017E+01  0.1251E+03
  11.170  0.1010E+01  0.1251E+03
  11.180  0.1002E+01  0.1251E+03
  11.190  0.9954E+00  0.1252E+03
  11.200  0.9883E+00  0.1252E+03
  11.210  0.9811E+00  0.1252E+03
  11.220  0.9757E+00  0.1252E+03
  11.230  0.9730E+00  0.1252E+03
  11.240  0.9703E+00  0.1252E+03
  11.250  0.9676E+00  0.1252E+03
  11.260  0.9649E+00  0.1252E+03
  11.270  0.9622E+00  0.1252E+03
  11.280  0.9595E+00  0.1252E+03
  11.290  0.9568E+00  0.1252E+03
  11.300  0.9541E+00  0.1253E+03
  11.310  0.9514E+00  0.1253E+03
  11.320  0.9487E+00  0.1253E+03
  11.330  0.9460E+00  0.1253E+03
  11.340  0.9433E+00  0.1253E+03
  11.350  0.9444E+00  0.1253E+03
  11.360  0.9463E+00  0.1253E+03
  11.370  0.9482E+00  0.1253E+03
  11.380  0.9500E+00  0.1253E+03
  11.390  0.9519E+00  0.1253E+03
  11.400  0.9538E+00  0.1254E+03
  11.410  0.9557E+00  0.1254E+03
  11.420  0.9576E+00  0.1254E+03
  11.430  0.9594E+00  0.1254E+03
  11.440  0.9613E+00  0.1254E+03
  11.450  0.9632E+00  0.1254E+03
  11.460  0.9651E+00  0.1254E+03
  11.470  0.9670E+00  0.1254E+03
  11.480  0.9688E+00  0.1254E+03
  11.490  0.9707E+00  0.1254E+03
  11.500  0.9726E+00  0.1255E+03
  11.510  0.9745E+00  0.1255E+03
  11.520  0.9764E+00  0.1255E+03
  11.530  0.9782E+00  0.1255E+03
  11.540  0.9969E+00  0.1255E+03
  11.550  0.9995E+00  0.1255E+03
  11.560  0.1014E+01  0.1255E+03
  11.570  0.1009E+01  0.1255E+03
  11.580  0.1005E+01  0.1255E+03
  11.590  0.1000E+01  0.1255E+03
  11.600  0.9957E+00  0.1255E+03
  11.610  0.9911E+00  0.1256E+03
  11.620  0.9865E+00  0.1256E+03
  11.630  0.9820E+00  0.1256E+03
  11.640  0.9774E+00  0.1256E+03
  11.650  0.9918E+00  0.1256E+03
  11.660  0.1001E+01  0.1256E+03
  11.670  0.3158E+01  0.1256E+03
  11.680  0.2885E+01  0.1257E+03
  11.690  0.3741E+01  0.1257E+03
  11.700  0.2148E+01  0.1257E+03
  11.710  0.2177E+01  0.1258E+03
  11.720  0.2206E+01  0.1258E+03
  11.730  0.2235E+01  0.1258E+03
  11.740  0.2264E+01  0.1258E+03
  11.750  0.2293E+01  0.1258E+03
  11.760  0.2322E+01  0.1259E+03
  11.770  0.2351E+01  0.1259E+03
  11.780  0.2380E+01  0.1259E+03
  11.790  0.2409E+01  0.1259E+03
  11.800  0.2439E+01  0.1260E+03
  11.810  0.2468E+01  0.1260E+03
  11.820  0.2497E+01  0.1260E+03
  11.830  0.2464E+01  0.1260E+03
  11.840  0.2322E+01  0.1261E+03
  11.850  0.2276E+01  0.1261E+03
  11.860  0.2298E+01  0.1261E+03
  11.870  0.2319E+01  0.1261E+03
  11.880  0.2340E+01  0.1262E+03
  11.890  0.2361E+01  0.1262E+03
  11.900  0.2382E+01  0.1262E+03
  11.910  0.2403E+01  0.1262E+03
  11.920  0.2425E+01  0.1262E+03
  11.930  0.2446E+01  0.1263E+03
  11.940  0.2467E+01  0.1263E+03
  11.950  0.2488E+01  0.1263E+03
  11.960  0.2509E+01  0.1263E+03
  11.970  0.2530E+01  0.1264E+03
  11.980  0.2552E+01  0.1264E+03
  11.990  0.2573E+01  0.1264E+03
  12.000  0.2594E+01  0.1264E+03
  12.010  0.2615E+01  0.1265E+03
  12.020  0.2636E+01  0.1265E+03
  12.030  0.2657E+01  0.1265E+03
  12.040  0.2678E+01  0.1266E+03
  12.050  0.2859E+01  0.1266E+03
  12.060  0.4803E+01  0.1266E+03
  12.070  0.2922E+01  0.1267E+03
  12.080  0.3041E+01  0.1267E+03
  12.090  0.3190E+01  0.1267E+03
  12.100  0.3362E+01  0.1268E+03
  12.110  0.3519E+01  0.1268E+03
  12.120  0.3539E+01  0.1268E+03
  12.130  0.5321E+01  0.1269E+03
  12.140  0.3317E+01  0.1269E+03
  12.150  0.3339E+01  0.1270E+03
  12.160  0.3362E+01  0.1270E+03
  12.170  0.3385E+01  0.1270E+03
  12.180  0.3408E+01  0.1271E+03
  12.190  0.3431E+01  0.1271E+03
  12.200  0.3671E+01  0.1271E+03
  12.210  0.3578E+01  0.1272E+03
  12.220  0.3978E+01  0.1272E+03
  12.230  0.4164E+01  0.1273E+03
  12.240  0.3809E+01  0.1273E+03
  12.250  0.3568E+01  0.1273E+03
  12.260  0.3207E+01  0.1274E+03
  12.270  0.2908E+01  0.1274E+03
  12.280  0.2250E+01  0.1274E+03
  12.290  0.2093E+01  0.1274E+03
  12.300  0.1957E+01  0.1275E+03
  12.310  0.1843E+01  0.1275E+03
  12.320  0.2072E+01  0.1275E+03
  12.330  0.2079E+01  0.1275E+03
  12.340  0.2120E+01  0.1276E+03
  12.350  0.3102E+01  0.1276E+03
  12.360  0.3574E+01  0.1276E+03
  12.370  0.2675E+01  0.1277E+03
  12.380  0.2707E+01  0.1277E+03
  12.390  0.2805E+01  0.1277E+03
  12.400  0.2917E+01  0.1277E+03
  12.410  0.3040E+01  0.1278E+03
  12.420  0.3177E+01  0.1278E+03
  12.430  0.3326E+01  0.1278E+03
  12.440  0.3463E+01  0.1279E+03
  12.450  0.3009E+01  0.1279E+03
  12.460  0.2522E+01  0.1279E+03
  12.470  0.2798E+01  0.1280E+03
  12.480  0.2970E+01  0.1280E+03
  12.490  0.2568E+01  0.1280E+03
  12.500  0.2244E+01  0.1280E+03
  12.510  0.1881E+01  0.1281E+03
  12.520  0.1698E+01  0.1281E+03
  12.530  0.1531E+01  0.1281E+03
  12.540  0.1378E+01  0.1281E+03
  12.550  0.1241E+01  0.1281E+03
  12.560  0.1119E+01  0.1281E+03
  12.570  0.1012E+01  0.1281E+03
  12.580  0.6700E+00  0.1282E+03
  12.590  0.6830E+00  0.1282E+03
  12.600  0.6960E+00  0.1282E+03
  12.610  0.7090E+00  0.1282E+03
  12.620  0.7220E+00  0.1282E+03
  12.630  0.7350E+00  0.1282E+03
  12.640  0.7457E+00  0.1282E+03
  12.650  0.7391E+00  0.1282E+03
  12.660  0.7429E+00  0.1282E+03
  12.670  0.7470E+00  0.1282E+03
  12.680  0.7520E+00  0.1282E+03
  12.690  0.7571E+00  0.1282E+03
  12.700  0.7620E+00  0.1282E+03
  12.710  0.7665E+00  0.1282E+03
  12.720  0.7734E+00  0.1283E+03
  12.730  0.7816E+00  0.1283E+03
  12.740  0.7893E+00  0.1283E+03
  12.750  0.8158E+00  0.1283E+03
  12.760  0.8030E+00  0.1283E+03
  12.770  0.7903E+00  0.1283E+03
  12.780  0.7775E+00  0.1283E+03
  12.790  0.7647E+00  0.1283E+03
  12.800  0.7519E+00  0.1283E+03
  12.810  0.7391E+00  0.1283E+03
  12.820  0.7263E+00  0.1283E+03
  12.830  0.7137E+00  0.1283E+03
  12.840  0.7044E+00  0.1283E+03
  12.850  0.6977E+00  0.1284E+03
  12.860  0.6935E+00  0.1284E+03
  12.870  0.6929E+00  0.1284E+03
  12.880  0.6984E+00  0.1284E+03
  12.890  0.7051E+00  0.1284E+03
  12.900  0.7119E+00  0.1284E+03
  12.910  0.7186E+00  0.1284E+03
  12.920  0.7253E+00  0.1284E+03
  12.930  0.7320E+00  0.1284E+03
  12.940  0.8809E+00  0.1284E+03
  12.950  0.8986E+00  0.1284E+03
  12.960  0.9166E+00  0.1284E+03
  12.970  0.9348E+00  0.1284E+03
  12.980  0.9533E+00  0.1285E+03
  12.990  0.9721E+00  0.1285E+03
  13.000  0.9912E+00  0.1285E+03
  13.010  0.1011E+01  0.1285E+03
  13.020  0.1071E+01  0.1285E+03
  13.030  0.1099E+01  0.1285E+03
  13.040  0.1127E+01  0.1285E+03
  13.050  0.1157E+01  0.1285E+03
  13.060  0.1753E+01  0.1286E+03
  13.070  0.1275E+01  0.1286E+03
  13.080  0.1840E+01  0.1286E+03
  13.090  0.1907E+01  0.1286E+03
  13.100  0.1976E+01  0.1286E+03
  13.110  0.1743E+01  0.1286E+03
  13.120  0.1705E+01  0.1287E+03
  13.130  0.1744E+01  0.1287E+03
  13.140  0.1783E+01  0.1287E+03
  13.150  0.1823E+01  0.1287E+03
  13.160  0.1863E+01  0.1287E+03
  13.170  0.1903E+01  0.1287E+03
  13.180  0.1831E+01  0.1288E+03
  13.190  0.2026E+01  0.1288E+03
  13.200  0.2067E+01  0.1288E+03
  13.210  0.2109E+01  0.1288E+03
  13.220  0.2157E+01  0.1289E+03
  13.230  0.2205E+01  0.1289E+03
  13.240  0.2406E+01  0.1289E+03
  13.250  0.2417E+01  0.1289E+03
  13.260  0.2474E+01  0.1290E+03
  13.270  0.2532E+01  0.1290E+03
  13.280  0.2592E+01  0.1290E+03
  13.290  0.2653E+01  0.1290E+03
  13.300  0.2743E+01  0.1291E+03
  13.310  0.2969E+01  0.1291E+03
  13.320  0.3126E+01  0.1291E+03
  13.330  0.3266E+01  0.1291E+03
  13.340  0.3402E+01  0.1292E+03
  13.350  0.3552E+01  0.1292E+03
  13.360  0.3821E+01  0.1293E+03
  13.370  0.4000E+01  0.1293E+03
  13.380  0.4126E+01  0.1293E+03
  13.390  0.3978E+01  0.1294E+03
  13.400  0.4042E+01  0.1294E+03
  13.410  0.4020E+01  0.1295E+03
  13.420  0.3999E+01  0.1295E+03
  13.430  0.3926E+01  0.1295E+03
  13.440  0.3896E+01  0.1296E+03
  13.450  0.3865E+01  0.1296E+03
  13.460  0.3835E+01  0.1297E+03
  13.470  0.3805E+01  0.1297E+03
  13.480  0.3774E+01  0.1297E+03
  13.490  0.3744E+01  0.1298E+03
  13.500  0.3714E+01  0.1298E+03
  13.510  0.3684E+01  0.1298E+03
  13.520  0.3653E+01  0.1299E+03
  13.530  0.3623E+01  0.1299E+03
  13.540  0.3593E+01  0.1300E+03
  13.550  0.3563E+01  0.1300E+03
  13.560  0.3661E+01  0.1300E+03
  13.570  0.3781E+01  0.1301E+03
  13.580  0.3742E+01  0.1301E+03
  13.590  0.3683E+01  0.1301E+03
  13.600  0.3624E+01  0.1302E+03
  13.610  0.3566E+01  0.1302E+03
  13.620  0.3508E+01  0.1302E+03
  13.630  0.3449E+01  0.1303E+03
  13.640  0.3391E+01  0.1303E+03
  13.650  0.3333E+01  0.1304E+03
  13.660  0.3285E+01  0.1304E+03
  13.670  0.3238E+01  0.1304E+03
  13.680  0.3195E+01  0.1304E+03
  13.690  0.5034E+01  0.1305E+03
  13.700  0.5874E+01  0.1306E+03
  13.710  0.5242E+01  0.1306E+03
  13.720  0.4658E+01  0.1307E+03
  13.730  0.4862E+01  0.1307E+03
  13.740  0.5810E+01  0.1308E+03
  13.750  0.1893E+01  0.1308E+03
  13.760  0.1912E+01  0.1308E+03
  13.770  0.1931E+01  0.1309E+03
  13.780  0.1950E+01  0.1309E+03
  13.790  0.1970E+01  0.1309E+03
  13.800  0.1989E+01  0.1309E+03
  13.810  0.2008E+01  0.1309E+03
  13.820  0.2027E+01  0.1310E+03
  13.830  0.2035E+01  0.1310E+03
  13.840  0.2049E+01  0.1310E+03
  13.850  0.2062E+01  0.1310E+03
  13.860  0.2075E+01  0.1310E+03
  13.870  0.2090E+01  0.1311E+03
  13.880  0.2105E+01  0.1311E+03
  13.890  0.2119E+01  0.1311E+03
  13.900  0.2132E+01  0.1311E+03
  13.910  0.2143E+01  0.1311E+03
  13.920  0.2153E+01  0.1312E+03
  13.930  0.2161E+01  0.1312E+03
  13.940  0.2162E+01  0.1312E+03
  13.950  0.2175E+01  0.1312E+03
  13.960  0.2188E+01  0.1312E+03
  13.970  0.2198E+01  0.1313E+03
  13.980  0.2208E+01  0.1313E+03
  13.990  0.2216E+01  0.1313E+03
  14.000  0.2224E+01  0.1313E+03
  14.010  0.2232E+01  0.1314E+03
  14.020  0.2241E+01  0.1314E+03
  14.030  0.2249E+01  0.1314E+03
  14.040  0.2257E+01  0.1314E+03
  14.050  0.2270E+01  0.1314E+03
  14.060  0.2293E+01  0.1315E+03
  14.070  0.2328E+01  0.1315E+03
  14.080  0.2367E+01  0.1315E+03
  14.090  0.2406E+01  0.1315E+03
  14.100  0.2445E+01  0.1316E+03
  14.110  0.2484E+01  0.1316E+03
  14.120  0.2523E+01  0.1316E+03
  14.130  0.2562E+01  0.1316E+03
  14.140  0.2601E+01  0.1317E+03
  14.150  0.3295E+01  0.1317E+03
  14.160  0.3168E+01  0.1317E+03
  14.170  0.3253E+01  0.1318E+03
  14.180  0.3339E+01  0.1318E+03
  14.190  0.3503E+01  0.1318E+03
  14.200  0.3233E+01  0.1319E+03
  14.210  0.3223E+01  0.1319E+03
  14.220  0.3168E+01  0.1319E+03
  14.230  0.3109E+01  0.1320E+03
  14.240  0.3035E+01  0.1320E+03
  14.250  0.2923E+01  0.1320E+03
  14.260  0.2757E+01  0.1321E+03
  14.270  0.2631E+01  0.1321E+03
  14.280  0.2624E+01  0.1321E+03
  14.290  0.2622E+01  0.1321E+03
  14.300  0.2688E+01  0.1322E+03
  14.310  0.2672E+01  0.1322E+03
  14.320  0.8689E+01  0.1323E+03
  14.330  0.8091E+01  0.1323E+03
  14.340  0.5749E+01  0.1324E+03
  14.350  0.5163E+01  0.1325E+03
  14.360  0.4278E+01  0.1325E+03
  14.370  0.4106E+01  0.1326E+03
  14.380  0.3941E+01  0.1326E+03
  14.390  0.3409E+01  0.1326E+03
  14.400  0.3387E+01  0.1327E+03
  14.410  0.3368E+01  0.1327E+03
  14.420  0.3377E+01  0.1327E+03
  14.430  0.3701E+01  0.1328E+03
  14.440  0.4179E+01  0.1328E+03
  14.450  0.4530E+01  0.1329E+03
  14.460  0.4511E+01  0.1329E+03
  14.470  0.4547E+01  0.1329E+03
  14.480  0.4645E+01  0.1330E+03
  14.490  0.5015E+01  0.1330E+03
  14.500  0.5101E+01  0.1331E+03
  14.510  0.5368E+01  0.1332E+03
  14.520  0.5971E+01  0.1332E+03
  14.530  0.6225E+01  0.1333E+03
  14.540  0.6293E+01  0.1333E+03
  14.550  0.6251E+01  0.1334E+03
  14.560  0.5990E+01  0.1335E+03
  14.570  0.5267E+01  0.1335E+03
  14.580  0.4608E+01  0.1336E+03
  14.590  0.3878E+01  0.1336E+03
  14.600  0.3786E+01  0.1337E+03
  14.610  0.3736E+01  0.1337E+03
  14.620  0.3692E+01  0.1337E+03
  14.630  0.3652E+01  0.1338E+03
  14.640  0.3619E+01  0.1338E+03
  14.650  0.3591E+01  0.1338E+03
  14.660  0.3570E+01  0.1339E+03
  14.670  0.3560E+01  0.1339E+03
  14.680  0.3560E+01  0.1340E+03
  14.690  0.3575E+01  0.1340E+03
  14.700  0.3653E+01  0.1340E+03
  14.710  0.3712E+01  0.1341E+03
  14.720  0.3773E+01  0.1341E+03
  14.730  0.3868E+01  0.1341E+03
  14.740  0.4065E+01  0.1342E+03
  14.750  0.4522E+01  0.1342E+03
  14.760  0.4957E+01  0.1343E+03
  14.770  0.5233E+01  0.1343E+03
  14.780  0.5418E+01  0.1344E+03
  14.790  0.5714E+01  0.1344E+03
  14.800  0.5877E+01  0.1345E+03
  14.810  0.5942E+01  0.1345E+03
  14.820  0.6002E+01  0.1346E+03
  14.830  0.6058E+01  0.1347E+03
  14.840  0.5938E+01  0.1347E+03
  14.850  0.5912E+01  0.1348E+03
  14.860  0.5896E+01  0.1348E+03
  14.870  0.5886E+01  0.1349E+03
  14.880  0.5886E+01  0.1350E+03
  14.890  0.4962E+01  0.1350E+03
  14.900  0.5089E+01  0.1351E+03
  14.910  0.4486E+01  0.1352E+03
  14.920  0.4628E+01  0.1352E+03
  14.930  0.7249E+01  0.1353E+03
  14.940  0.7122E+01  0.1353E+03
  14.950  0.6833E+01  0.1354E+03
  14.960  0.5938E+01  0.1355E+03
  14.970  0.5677E+01  0.1356E+03
  14.980  0.5767E+01  0.1356E+03
  14.990  0.5877E+01  0.1357E+03
  15.000  0.5986E+01  0.1357E+03
  15.010  0.5923E+01  0.1358E+03
  15.020  0.5636E+01  0.1359E+03
  15.030  0.5342E+01  0.1359E+03
  15.040  0.5059E+01  0.1360E+03
  15.050  0.5108E+01  0.1360E+03
  15.060  0.5154E+01  0.1361E+03
  15.070  0.5199E+01  0.1361E+03
  15.080  0.5241E+01  0.1362E+03
  15.090  0.5282E+01  0.1362E+03
  15.100  0.5320E+01  0.1363E+03
  15.110  0.5357E+01  0.1363E+03
  15.120  0.5391E+01  0.1364E+03
  15.130  0.5423E+01  0.1364E+03
  15.140  0.5128E+01  0.1365E+03
  15.150  0.5208E+01  0.1365E+03
  15.160  0.5553E+01  0.1366E+03
  15.170  0.6149E+01  0.1367E+03
  15.180  0.6249E+01  0.1367E+03
  15.190  0.6694E+01  0.1368E+03
  15.200  0.6904E+01  0.1369E+03
  15.210  0.7387E+01  0.1369E+03
  15.220  0.8546E+01  0.1370E+03
  15.230  0.8418E+01  0.1371E+03
  15.240  0.7888E+01  0.1372E+03
  15.250  0.5931E+01  0.1373E+03
  15.260  0.6021E+01  0.1373E+03
  15.270  0.6174E+01  0.1374E+03
  15.280  0.6316E+01  0.1374E+03
  15.290  0.6489E+01  0.1375E+03
  15.300  0.7197E+01  0.1376E+03
  15.310  0.7569E+01  0.1377E+03
  15.320  0.7840E+01  0.1377E+03
  15.330  0.7615E+01  0.1378E+03
  15.340  0.7548E+01  0.1379E+03
  15.350  0.7870E+01  0.1380E+03
  15.360  0.8822E+01  0.1381E+03
  15.370  0.1201E+02  0.1381E+03
  15.380  0.1102E+02  0.1383E+03
  15.390  0.8866E+01  0.1384E+03
  15.400  0.8882E+01  0.1385E+03
  15.410  0.8893E+01  0.1385E+03
  15.420  0.8902E+01  0.1386E+03
  15.430  0.8917E+01  0.1387E+03
  15.440  0.8898E+01  0.1388E+03
  15.450  0.8870E+01  0.1389E+03
  15.460  0.8744E+01  0.1390E+03
  15.470  0.8853E+01  0.1391E+03
  15.480  0.9410E+01  0.1392E+03
  15.490  0.9295E+01  0.1393E+03
  15.500  0.9151E+01  0.1394E+03
  15.510  0.8788E+01  0.1395E+03
  15.520  0.9393E+01  0.1396E+03
  15.530  0.8709E+01  0.1397E+03
  15.540  0.7993E+01  0.1397E+03
  15.550  0.7142E+01  0.1398E+03
  15.560  0.6897E+01  0.1399E+03
  15.570  0.6764E+01  0.1400E+03
  15.580  0.6554E+01  0.1400E+03
  15.590  0.6544E+01  0.1401E+03
  15.600  0.6539E+01  0.1402E+03
  15.610  0.6547E+01  0.1402E+03
  15.620  0.6510E+01  0.1403E+03
  15.630  0.6547E+01  0.1404E+03
  15.640  0.6621E+01  0.1404E+03
  15.650  0.6395E+01  0.1405E+03
  15.660  0.6554E+01  0.1406E+03
  15.670  0.7605E+01  0.1406E+03
  15.680  0.7623E+01  0.1407E+03
  15.690  0.7621E+01  0.1408E+03
  15.700  0.7748E+01  0.1409E+03
  15.710  0.7930E+01  0.1410E+03
  15.720  0.8423E+01  0.1410E+03
  15.730  0.8578E+01  0.1411E+03
  15.740  0.8499E+01  0.1412E+03
  15.750  0.8564E+01  0.1413E+03
  15.760  0.8733E+01  0.1414E+03
  15.770  0.8968E+01  0.1415E+03
  15.780  0.8756E+01  0.1416E+03
  15.790  0.8147E+01  0.1417E+03
  15.800  0.7818E+01  0.1417E+03
  15.810  0.7629E+01  0.1418E+03
  15.820  0.7473E+01  0.1419E+03
  15.830  0.7329E+01  0.1420E+03
  15.840  0.7493E+01  0.1420E+03
  15.850  0.7612E+01  0.1421E+03
  15.860  0.7246E+01  0.1422E+03
  15.870  0.6805E+01  0.1423E+03
  15.880  0.6756E+01  0.1423E+03
  15.890  0.6719E+01  0.1424E+03
  15.900  0.6663E+01  0.1425E+03
  15.910  0.6453E+01  0.1425E+03
  15.920  0.6446E+01  0.1426E+03
  15.930  0.6421E+01  0.1427E+03
  15.940  0.6167E+01  0.1427E+03
  15.950  0.6080E+01  0.1428E+03
  15.960  0.5990E+01  0.1429E+03
  15.970  0.5897E+01  0.1429E+03
  15.980  0.5800E+01  0.1430E+03
  15.990  0.5621E+01  0.1430E+03
  16.000  0.5080E+01  0.1431E+03
  16.010  0.4819E+01  0.1431E+03
  16.020  0.4646E+01  0.1432E+03
  16.030  0.5180E+01  0.1432E+03
  16.040  0.4479E+01  0.1433E+03
  16.050  0.4414E+01  0.1433E+03
  16.060  0.4368E+01  0.1434E+03
  16.070  0.4367E+01  0.1434E+03
  16.080  0.4402E+01  0.1435E+03
  16.090  0.4586E+01  0.1435E+03
  16.100  0.1022E+02  0.1436E+03
  16.110  0.5573E+01  0.1437E+03
  16.120  0.5560E+01  0.1437E+03
  16.130  0.5677E+01  0.1438E+03
  16.140  0.5512E+01  0.1438E+03
  16.150  0.5503E+01  0.1439E+03
  16.160  0.5377E+01  0.1439E+03
  16.170  0.5390E+01  0.1440E+03
  16.180  0.5391E+01  0.1441E+03
  16.190  0.5457E+01  0.1441E+03
  16.200  0.5579E+01  0.1442E+03
  16.210  0.5706E+01  0.1442E+03
  16.220  0.5855E+01  0.1443E+03
  16.230  0.6038E+01  0.1443E+03
  16.240  0.7871E+01  0.1444E+03
  16.250  0.8446E+01  0.1445E+03
  16.260  0.8986E+01  0.1446E+03
  16.270  0.1008E+02  0.1447E+03
  16.280  0.1122E+02  0.1448E+03
  16.290  0.1165E+02  0.1449E+03
  16.300  0.1182E+02  0.1450E+03
  16.310  0.1115E+02  0.1451E+03
  16.320  0.1035E+02  0.1452E+03
  16.330  0.9495E+01  0.1453E+03
  16.340  0.8824E+01  0.1454E+03
  16.350  0.8207E+01  0.1455E+03
  16.360  0.7398E+01  0.1456E+03
  16.370  0.6596E+01  0.1457E+03
  16.380  0.6186E+01  0.1457E+03
  16.390  0.5907E+01  0.1458E+03
  16.400  0.5778E+01  0.1458E+03
  16.410  0.5779E+01  0.1459E+03
  16.420  0.5711E+01  0.1460E+03
  16.430  0.5113E+01  0.1460E+03
  16.440  0.5099E+01  0.1461E+03
  16.450  0.5121E+01  0.1461E+03
  16.460  0.5244E+01  0.1462E+03
  16.470  0.5055E+01  0.1462E+03
  16.480  0.4925E+01  0.1463E+03
  16.490  0.4904E+01  0.1463E+03
  16.500  0.4854E+01  0.1464E+03
  16.510  0.4810E+01  0.1464E+03
  16.520  0.4773E+01  0.1465E+03
  16.530  0.4736E+01  0.1465E+03
  16.540  0.4678E+01  0.1466E+03
  16.550  0.4604E+01  0.1466E+03
  16.560  0.4562E+01  0.1467E+03
  16.570  0.4326E+01  0.1467E+03
  16.580  0.4316E+01  0.1468E+03
  16.590  0.4244E+01  0.1468E+03
  16.600  0.4234E+01  0.1468E+03
  16.610  0.3984E+01  0.1469E+03
  16.620  0.3945E+01  0.1469E+03
  16.630  0.3920E+01  0.1470E+03
  16.640  0.3911E+01  0.1470E+03
  16.650  0.3897E+01  0.1470E+03
  16.660  0.3911E+01  0.1471E+03
  16.670  0.4033E+01  0.1471E+03
  16.680  0.4410E+01  0.1472E+03
  16.690  0.4830E+01  0.1472E+03
  16.700  0.5283E+01  0.1473E+03
  16.710  0.6551E+01  0.1473E+03
  16.720  0.6862E+01  0.1474E+03
  16.730  0.6081E+01  0.1475E+03
  16.740  0.5844E+01  0.1475E+03
  16.750  0.5668E+01  0.1476E+03
  16.760  0.6484E+01  0.1476E+03
  16.770  0.5626E+01  0.1477E+03
  16.780  0.5523E+01  0.1478E+03
  16.790  0.5576E+01  0.1478E+03
  16.800  0.3337E+01  0.1479E+03
  16.810  0.2794E+01  0.1479E+03
  16.820  0.1681E+01  0.1479E+03
  16.830  0.1085E+01  0.1479E+03
  16.840  0.6486E+00  0.1479E+03
  16.850  0.5571E+00  0.1479E+03
  16.860  0.4799E+00  0.1479E+03
  16.870  0.4748E+00  0.1480E+03
  16.880  0.4459E+00  0.1480E+03
  16.890  0.4178E+00  0.1480E+03
  16.900  0.3905E+00  0.1480E+03
  16.910  0.3640E+00  0.1480E+03
  16.920  0.3383E+00  0.1480E+03
  16.930  0.3134E+00  0.1480E+03
  16.940  0.2893E+00  0.1480E+03
  16.950  0.2660E+00  0.1480E+03
  16.960  0.2435E+00  0.1480E+03
  16.970  0.2218E+00  0.1480E+03
  16.980  0.2009E+00  0.1480E+03
  16.990  0.1808E+00  0.1480E+03
  17.000  0.1615E+00  0.1480E+03
  17.010  0.1430E+00  0.1480E+03
  17.020  0.0000E+00  0.1480E+03
  17.030  0.0000E+00  0.1480E+03
  17.040  0.0000E+00  0.1480E+03
  17.050  0.0000E+00  0.1480E+03
  17.060  0.0000E+00  0.1480E+03
  17.070  0.0000E+00  0.1480E+03
  17.080  0.0000E+00  0.1480E+03
  17.090  0.0000E+00  0.1480E+03
  17.100  0.0000E+00  0.1480E+03
  17.110  0.0000E+00  0.1480E+03
  17.120  0.0000E+00  0.1480E+03
  17.130  0.0000E+00  0.1480E+03
  17.140  0.0000E+00  0.1480E+03
  17.150  0.0000E+00  0.1480E+03
  17.160  0.0000E+00  0.1480E+03
  17.170  0.0000E+00  0.1480E+03
  17.180  0.0000E+00  0.1480E+03
  17.190  0.0000E+00  0.1480E+03
  17.200  0.0000E+00  0.1480E+03
  17.210  0.0000E+00  0.1480E+03
  17.220  0.0000E+00  0.1480E+03
  17.230  0.0000E+00  0.1480E+03
  17.240  0.0000E+00  0.1480E+03
  17.250  0.0000E+00  0.1480E+03
  17.260  0.0000E+00  0.1480E+03
  17.270  0.0000E+00  0.1480E+03
  17.280  0.0000E+00  0.1480E+03
  17.290  0.0000E+00  0.1480E+03
  17.300  0.0000E+00  0.1480E+03
  17.310  0.0000E+00  0.1480E+03
  17.320  0.0000E+00  0.1480E+03
  17.330  0.0000E+00  0.1480E+03
  17.340  0.0000E+00  0.1480E+03
  17.350  0.0000E+00  0.1480E+03
  17.360  0.0000E+00  0.1480E+03
  17.370  0.0000E+00  0.1480E+03
  17.380  0.0000E+00  0.1480E+03
  17.390  0.0000E+00  0.1480E+03
  17.400  0.0000E+00  0.1480E+03
  17.410  0.0000E+00  0.1480E+03
  17.420  0.0000E+00  0.1480E+03
  17.430  0.0000E+00  0.1480E+03
  17.440  0.0000E+00  0.1480E+03
  17.450  0.0000E+00  0.1480E+03
  17.460  0.0000E+00  0.1480E+03
  17.470  0.0000E+00  0.1480E+03
  17.480  0.0000E+00  0.1480E+03
  17.490  0.0000E+00  0.1480E+03
  17.500  0.0000E+00  0.1480E+03
  17.510  0.0000E+00  0.1480E+03
  17.520  0.0000E+00  0.1480E+03
  17.530  0.0000E+00  0.1480E+03
  17.540  0.0000E+00  0.1480E+03
  17.550  0.0000E+00  0.1480E+03
  17.560  0.0000E+00  0.1480E+03
  17.570  0.0000E+00  0.1480E+03
  17.580  0.0000E+00  0.1480E+03
  17.590  0.0000E+00  0.1480E+03
  17.600  0.0000E+00  0.1480E+03
  17.610  0.0000E+00  0.1480E+03
  17.620  0.0000E+00  0.1480E+03
  17.630  0.0000E+00  0.1480E+03
  17.640  0.0000E+00  0.1480E+03
  17.650  0.0000E+00  0.1480E+03
  17.660  0.0000E+00  0.1480E+03
  17.670  0.0000E+00  0.1480E+03
  17.680  0.0000E+00  0.1480E+03
  17.690  0.0000E+00  0.1480E+03
  17.700  0.0000E+00  0.1480E+03
  17.710  0.0000E+00  0.1480E+03
  17.720  0.0000E+00  0.1480E+03
  17.730  0.0000E+00  0.1480E+03
  17.740  0.0000E+00  0.1480E+03
  17.750  0.0000E+00  0.1480E+03
  17.760  0.0000E+00  0.1480E+03
  17.770  0.0000E+00  0.1480E+03
  17.780  0.0000E+00  0.1480E+03
  17.790  0.0000E+00  0.1480E+03
  17.800  0.0000E+00  0.1480E+03
  17.810  0.0000E+00  0.1480E+03
  17.820  0.0000E+00  0.1480E+03
  17.830  0.0000E+00  0.1480E+03
  17.840  0.0000E+00  0.1480E+03
  17.850  0.0000E+00  0.1480E+03
  17.860  0.0000E+00  0.1480E+03
  17.870  0.0000E+00  0.1480E+03
  17.880  0.0000E+00  0.1480E+03
  17.890  0.0000E+00  0.1480E+03
  17.900  0.0000E+00  0.1480E+03
  17.910  0.0000E+00  0.1480E+03
  17.920  0.0000E+00  0.1480E+03
  17.930  0.0000E+00  0.1480E+03
  17.940  0.0000E+00  0.1480E+03
  17.950  0.0000E+00  0.1480E+03
  17.960  0.0000E+00  0.1480E+03
  17.970  0.0000E+00  0.1480E+03
  17.980  0.0000E+00  0.1480E+03
  17.990  0.0000E+00  0.1480E+03
  18.000  0.0000E+00  0.1480E+03
  18.010  0.0000E+00  0.1480E+03
  18.020  0.0000E+00  0.1480E+03
  18.030  0.0000E+00  0.1480E+03
  18.040  0.0000E+00  0.1480E+03
  18.050  0.0000E+00  0.1480E+03
  18.060  0.0000E+00  0.1480E+03
  18.070  0.0000E+00  0.1480E+03
  18.080  0.0000E+00  0.1480E+03
  18.090  0.0000E+00  0.1480E+03
  18.100  0.0000E+00  0.1480E+03
  18.110  0.0000E+00  0.1480E+03
  18.120  0.0000E+00  0.1480E+03
  18.130  0.0000E+00  0.1480E+03
  18.140  0.0000E+00  0.1480E+03
  18.150  0.0000E+00  0.1480E+03
  18.160  0.0000E+00  0.1480E+03
  18.170  0.0000E+00  0.1480E+03
  18.180  0.0000E+00  0.1480E+03
  18.190  0.0000E+00  0.1480E+03
  18.200  0.0000E+00  0.1480E+03
  18.210  0.0000E+00  0.1480E+03
  18.220  0.0000E+00  0.1480E+03
  18.230  0.0000E+00  0.1480E+03
  18.240  0.0000E+00  0.1480E+03
  18.250  0.0000E+00  0.1480E+03
  18.260  0.0000E+00  0.1480E+03
  18.270  0.0000E+00  0.1480E+03
  18.280  0.0000E+00  0.1480E+03
  18.290  0.0000E+00  0.1480E+03
  18.300  0.0000E+00  0.1480E+03
  18.310  0.0000E+00  0.1480E+03
  18.320  0.0000E+00  0.1480E+03
  18.330  0.0000E+00  0.1480E+03
  18.340  0.0000E+00  0.1480E+03
  18.350  0.0000E+00  0.1480E+03
  18.360  0.0000E+00  0.1480E+03
  18.370  0.0000E+00  0.1480E+03
  18.380  0.0000E+00  0.1480E+03
  18.390  0.0000E+00  0.1480E+03
  18.400  0.0000E+00  0.1480E+03
  18.410  0.0000E+00  0.1480E+03
  18.420  0.0000E+00  0.1480E+03
  18.430  0.0000E+00  0.1480E+03
  18.440  0.0000E+00  0.1480E+03
  18.450  0.0000E+00  0.1480E+03
  18.460  0.0000E+00  0.1480E+03
  18.470  0.0000E+00  0.1480E+03
  18.480  0.0000E+00  0.1480E+03
  18.490  0.0000E+00  0.1480E+03
  18.500  0.0000E+00  0.1480E+03
  18.510  0.0000E+00  0.1480E+03
  18.520  0.0000E+00  0.1480E+03
  18.530  0.0000E+00  0.1480E+03
  18.540  0.0000E+00  0.1480E+03
  18.550  0.0000E+00  0.1480E+03
  18.560  0.0000E+00  0.1480E+03
  18.570  0.0000E+00  0.1480E+03
  18.580  0.0000E+00  0.1480E+03
  18.590  0.0000E+00  0.1480E+03
  18.600  0.0000E+00  0.1480E+03
  18.610  0.0000E+00  0.1480E+03
  18.620  0.0000E+00  0.1480E+03
  18.630  0.0000E+00  0.1480E+03
  18.640  0.0000E+00  0.1480E+03
  18.650  0.0000E+00  0.1480E+03
  18.660  0.0000E+00  0.1480E+03
  18.670  0.0000E+00  0.1480E+03
  18.680  0.0000E+00  0.1480E+03
  18.690  0.0000E+00  0.1480E+03
  18.700  0.0000E+00  0.1480E+03
  18.710  0.0000E+00  0.1480E+03
  18.720  0.0000E+00  0.1480E+03
  18.730  0.0000E+00  0.1480E+03
  18.740  0.0000E+00  0.1480E+03
  18.750  0.0000E+00  0.1480E+03
  18.760  0.0000E+00  0.1480E+03
  18.770  0.0000E+00  0.1480E+03
  18.780  0.0000E+00  0.1480E+03
  18.790  0.0000E+00  0.1480E+03
  18.800  0.0000E+00  0.1480E+03
  18.810  0.0000E+00  0.1480E+03
  18.820  0.0000E+00  0.1480E+03
  18.830  0.0000E+00  0.1480E+03
  18.840  0.0000E+00  0.1480E+03
  18.850  0.0000E+00  0.1480E+03
  18.860  0.0000E+00  0.1480E+03
  18.870  0.0000E+00  0.1480E+03
  18.880  0.0000E+00  0.1480E+03
  18.890  0.0000E+00  0.1480E+03
  18.900  0.0000E+00  0.1480E+03
  18.910  0.0000E+00  0.1480E+03
  18.920  0.0000E+00  0.1480E+03
  18.930  0.0000E+00  0.1480E+03
  18.940  0.0000E+00  0.1480E+03
  18.950  0.0000E+00  0.1480E+03
  18.960  0.0000E+00  0.1480E+03
  18.970  0.0000E+00  0.1480E+03
  18.980  0.0000E+00  0.1480E+03
  18.990  0.0000E+00  0.1480E+03
  19.000  0.0000E+00  0.1480E+03
  19.010  0.0000E+00  0.1480E+03
  19.020  0.0000E+00  0.1480E+03
  19.030  0.0000E+00  0.1480E+03
  19.040  0.0000E+00  0.1480E+03
  19.050  0.0000E+00  0.1480E+03
  19.060  0.0000E+00  0.1480E+03
  19.070  0.0000E+00  0.1480E+03
  19.080  0.0000E+00  0.1480E+03
  19.090  0.0000E+00  0.1480E+03
  19.100  0.0000E+00  0.1480E+03
  19.110  0.0000E+00  0.1480E+03
  19.120  0.0000E+00  0.1480E+03
  19.130  0.0000E+00  0.1480E+03
  19.140  0.0000E+00  0.1480E+03
  19.150  0.0000E+00  0.1480E+03
  19.160  0.0000E+00  0.1480E+03
  19.170  0.0000E+00  0.1480E+03
  19.180  0.0000E+00  0.1480E+03
  19.190  0.0000E+00  0.1480E+03
  19.200  0.0000E+00  0.1480E+03
  19.210  0.0000E+00  0.1480E+03
  19.220  0.0000E+00  0.1480E+03
  19.230  0.0000E+00  0.1480E+03
  19.240  0.0000E+00  0.1480E+03
  19.250  0.0000E+00  0.1480E+03
  19.260  0.0000E+00  0.1480E+03
  19.270  0.0000E+00  0.1480E+03
  19.280  0.0000E+00  0.1480E+03
  19.290  0.0000E+00  0.1480E+03
  19.300  0.0000E+00  0.1480E+03
  19.310  0.0000E+00  0.1480E+03
  19.320  0.0000E+00  0.1480E+03
  19.330  0.0000E+00  0.1480E+03
  19.340  0.0000E+00  0.1480E+03
  19.350  0.0000E+00  0.1480E+03
  19.360  0.0000E+00  0.1480E+03
  19.370  0.0000E+00  0.1480E+03
  19.380  0.0000E+00  0.1480E+03
  19.390  0.0000E+00  0.1480E+03
  19.400  0.0000E+00  0.1480E+03
  19.410  0.0000E+00  0.1480E+03
  19.420  0.0000E+00  0.1480E+03
  19.430  0.0000E+00  0.1480E+03
  19.440  0.0000E+00  0.1480E+03
  19.450  0.0000E+00  0.1480E+03
  19.460  0.0000E+00  0.1480E+03
  19.470  0.0000E+00  0.1480E+03
  19.480  0.0000E+00  0.1480E+03
  19.490  0.0000E+00  0.1480E+03
  19.500  0.0000E+00  0.1480E+03
  19.510  0.0000E+00  0.1480E+03
  19.520  0.0000E+00  0.1480E+03
  19.530  0.0000E+00  0.1480E+03
  19.540  0.0000E+00  0.1480E+03
  19.550  0.0000E+00  0.1480E+03
  19.560  0.0000E+00  0.1480E+03
  19.570  0.0000E+00  0.1480E+03
  19.580  0.0000E+00  0.1480E+03
  19.590  0.0000E+00  0.1480E+03
  19.600  0.0000E+00  0.1480E+03
  19.610  0.0000E+00  0.1480E+03
  19.620  0.0000E+00  0.1480E+03
  19.630  0.0000E+00  0.1480E+03
  19.640  0.0000E+00  0.1480E+03
  19.650  0.0000E+00  0.1480E+03
  19.660  0.0000E+00  0.1480E+03
  19.670  0.0000E+00  0.1480E+03
  19.680  0.0000E+00  0.1480E+03
  19.690  0.0000E+00  0.1480E+03
  19.700  0.0000E+00  0.1480E+03
  19.710  0.0000E+00  0.1480E+03
  19.720  0.0000E+00  0.1480E+03
  19.730  0.0000E+00  0.1480E+03
  19.740  0.0000E+00  0.1480E+03
  19.750  0.0000E+00  0.1480E+03
  19.760  0.0000E+00  0.1480E+03
  19.770  0.0000E+00  0.1480E+03
  19.780  0.0000E+00  0.1480E+03
  19.790  0.0000E+00  0.1480E+03
  19.800  0.0000E+00  0.1480E+03
  19.810  0.0000E+00  0.1480E+03
  19.820  0.0000E+00  0.1480E+03
  19.830  0.0000E+00  0.1480E+03
  19.840  0.0000E+00  0.1480E+03
  19.850  0.0000E+00  0.1480E+03
  19.860  0.0000E+00  0.1480E+03
  19.870  0.0000E+00  0.1480E+03
  19.880  0.0000E+00  0.1480E+03
  19.890  0.0000E+00  0.1480E+03
  19.900  0.0000E+00  0.1480E+03
  19.910  0.0000E+00  0.1480E+03
  19.920  0.0000E+00  0.1480E+03
  19.930  0.0000E+00  0.1480E+03
  19.940  0.0000E+00  0.1480E+03
  19.950  0.0000E+00  0.1480E+03
  19.960  0.0000E+00  0.1480E+03
  19.970  0.0000E+00  0.1480E+03
  19.980  0.0000E+00  0.1480E+03
  19.990  0.0000E+00  0.1480E+03
  20.000  0.0000E+00  0.1480E+03
  20.010  0.0000E+00  0.1480E+03
  20.020  0.0000E+00  0.1480E+03
  20.030  0.0000E+00  0.1480E+03
  20.040  0.0000E+00  0.1480E+03
  20.050  0.0000E+00  0.1480E+03
  20.060  0.0000E+00  0.1480E+03
  20.070  0.0000E+00  0.1480E+03
  20.080  0.0000E+00  0.1480E+03
  20.090  0.0000E+00  0.1480E+03
  20.100  0.0000E+00  0.1480E+03
  20.110  0.0000E+00  0.1480E+03
  20.120  0.0000E+00  0.1480E+03
  20.130  0.0000E+00  0.1480E+03
  20.140  0.0000E+00  0.1480E+03
  20.150  0.0000E+00  0.1480E+03
  20.160  0.0000E+00  0.1480E+03
  20.170  0.0000E+00  0.1480E+03
  20.180  0.0000E+00  0.1480E+03
  20.190  0.0000E+00  0.1480E+03
  20.200  0.0000E+00  0.1480E+03
  20.210  0.0000E+00  0.1480E+03
  20.220  0.0000E+00  0.1480E+03
  20.230  0.0000E+00  0.1480E+03
  20.240  0.0000E+00  0.1480E+03
  20.250  0.0000E+00  0.1480E+03
  20.260  0.0000E+00  0.1480E+03
  20.270  0.0000E+00  0.1480E+03
  20.280  0.0000E+00  0.1480E+03
  20.290  0.0000E+00  0.1480E+03
  20.300  0.0000E+00  0.1480E+03
  20.310  0.0000E+00  0.1480E+03
  20.320  0.0000E+00  0.1480E+03
  20.330  0.0000E+00  0.1480E+03
  20.340  0.0000E+00  0.1480E+03
  20.350  0.0000E+00  0.1480E+03
  20.360  0.0000E+00  0.1480E+03
  20.370  0.0000E+00  0.1480E+03
  20.380  0.0000E+00  0.1480E+03
  20.390  0.0000E+00  0.1480E+03
  20.400  0.0000E+00  0.1480E+03
  20.410  0.0000E+00  0.1480E+03
  20.420  0.0000E+00  0.1480E+03
  20.430  0.0000E+00  0.1480E+03
  20.440  0.0000E+00  0.1480E+03
  20.450  0.0000E+00  0.1480E+03
  20.460  0.0000E+00  0.1480E+03
  20.470  0.0000E+00  0.1480E+03
  20.480  0.0000E+00  0.1480E+03
  20.490  0.0000E+00  0.1480E+03
  20.500  0.0000E+00  0.1480E+03
  20.510  0.0000E+00  0.1480E+03
  20.520  0.0000E+00  0.1480E+03
  20.530  0.0000E+00  0.1480E+03
  20.540  0.0000E+00  0.1480E+03
  20.550  0.0000E+00  0.1480E+03
  20.560  0.0000E+00  0.1480E+03
  20.570  0.0000E+00  0.1480E+03
  20.580  0.0000E+00  0.1480E+03
  20.590  0.0000E+00  0.1480E+03
  20.600  0.0000E+00  0.1480E+03
  20.610  0.0000E+00  0.1480E+03
  20.620  0.0000E+00  0.1480E+03
  20.630  0.0000E+00  0.1480E+03
  20.640  0.0000E+00  0.1480E+03
  20.650  0.0000E+00  0.1480E+03
  20.660  0.0000E+00  0.1480E+03
  20.670  0.0000E+00  0.1480E+03
  20.680  0.0000E+00  0.1480E+03
  20.690  0.0000E+00  0.1480E+03
  20.700  0.0000E+00  0.1480E+03
  20.710  0.0000E+00  0.1480E+03
  20.720  0.0000E+00  0.1480E+03
  20.730  0.0000E+00  0.1480E+03
  20.740  0.0000E+00  0.1480E+03
  20.750  0.0000E+00  0.1480E+03
  20.760  0.0000E+00  0.1480E+03
  20.770  0.0000E+00  0.1480E+03
  20.780  0.0000E+00  0.1480E+03
  20.790  0.0000E+00  0.1480E+03
  20.800  0.0000E+00  0.1480E+03
  20.810  0.0000E+00  0.1480E+03
  20.820  0.0000E+00  0.1480E+03
  20.830  0.0000E+00  0.1480E+03
  20.840  0.0000E+00  0.1480E+03
  20.850  0.0000E+00  0.1480E+03
  20.860  0.0000E+00  0.1480E+03
  20.870  0.0000E+00  0.1480E+03
  20.880  0.0000E+00  0.1480E+03
  20.890  0.0000E+00  0.1480E+03
  20.900  0.0000E+00  0.1480E+03
  20.910  0.0000E+00  0.1480E+03
  20.920  0.0000E+00  0.1480E+03
  20.930  0.0000E+00  0.1480E+03
  20.940  0.0000E+00  0.1480E+03
  20.950  0.0000E+00  0.1480E+03
  20.960  0.0000E+00  0.1480E+03
  20.970  0.0000E+00  0.1480E+03
  20.980  0.0000E+00  0.1480E+03
  20.990  0.0000E+00  0.1480E+03
  21.000  0.0000E+00  0.1480E+03
  21.010  0.0000E+00  0.1480E+03
  21.020  0.0000E+00  0.1480E+03
  21.030  0.0000E+00  0.1480E+03
  21.040  0.0000E+00  0.1480E+03
  21.050  0.0000E+00  0.1480E+03
  21.060  0.0000E+00  0.1480E+03
  21.070  0.0000E+00  0.1480E+03
  21.080  0.0000E+00  0.1480E+03
  21.090  0.0000E+00  0.1480E+03
  21.100  0.0000E+00  0.1480E+03
  21.110  0.0000E+00  0.1480E+03
  21.120  0.0000E+00  0.1480E+03
  21.130  0.0000E+00  0.1480E+03
  21.140  0.0000E+00  0.1480E+03
  21.150  0.0000E+00  0.1480E+03
  21.160  0.0000E+00  0.1480E+03
  21.170  0.0000E+00  0.1480E+03
  21.180  0.0000E+00  0.1480E+03
  21.190  0.0000E+00  0.1480E+03
  21.200  0.0000E+00  0.1480E+03
  21.210  0.0000E+00  0.1480E+03
  21.220  0.0000E+00  0.1480E+03
  21.230  0.0000E+00  0.1480E+03
  21.240  0.0000E+00  0.1480E+03
  21.250  0.0000E+00  0.1480E+03
  21.260  0.0000E+00  0.1480E+03
  21.270  0.0000E+00  0.1480E+03
  21.280  0.0000E+00  0.1480E+03
  21.290  0.0000E+00  0.1480E+03
  21.300  0.0000E+00  0.1480E+03
  21.310  0.0000E+00  0.1480E+03
  21.320  0.0000E+00  0.1480E+03
  21.330  0.0000E+00  0.1480E+03
  21.340  0.0000E+00  0.1480E+03
  21.350  0.0000E+00  0.1480E+03
  21.360  0.0000E+00  0.1480E+03
  21.370  0.0000E+00  0.1480E+03
  21.380  0.0000E+00  0.1480E+03
  21.390  0.0000E+00  0.1480E+03
  21.400  0.0000E+00  0.1480E+03
  21.410  0.0000E+00  0.1480E+03
  21.420  0.0000E+00  0.1480E+03
  21.430  0.0000E+00  0.1480E+03
  21.440  0.0000E+00  0.1480E+03
  21.450  0.0000E+00  0.1480E+03
  21.460  0.0000E+00  0.1480E+03
  21.470  0.0000E+00  0.1480E+03
  21.480  0.0000E+00  0.1480E+03
  21.490  0.0000E+00  0.1480E+03
  21.500  0.0000E+00  0.1480E+03
  21.510  0.0000E+00  0.1480E+03
  21.520  0.0000E+00  0.1480E+03
  21.530  0.0000E+00  0.1480E+03
  21.540  0.0000E+00  0.1480E+03
  21.550  0.0000E+00  0.1480E+03
  21.560  0.0000E+00  0.1480E+03
  21.570  0.0000E+00  0.1480E+03
  21.580  0.0000E+00  0.1480E+03
  21.590  0.0000E+00  0.1480E+03
  21.600  0.0000E+00  0.1480E+03
  21.610  0.0000E+00  0.1480E+03
  21.620  0.0000E+00  0.1480E+03
  21.630  0.0000E+00  0.1480E+03
  21.640  0.0000E+00  0.1480E+03
  21.650  0.0000E+00  0.1480E+03
  21.660  0.0000E+00  0.1480E+03
  21.670  0.0000E+00  0.1480E+03
  21.680  0.0000E+00  0.1480E+03
  21.690  0.0000E+00  0.1480E+03
  21.700  0.0000E+00  0.1480E+03
  21.710  0.0000E+00  0.1480E+03
  21.720  0.0000E+00  0.1480E+03
  21.730  0.0000E+00  0.1480E+03
  21.740  0.0000E+00  0.1480E+03
  21.750  0.0000E+00  0.1480E+03
  21.760  0.0000E+00  0.1480E+03
  21.770  0.0000E+00  0.1480E+03
  21.780  0.0000E+00  0.1480E+03
  21.790  0.0000E+00  0.1480E+03
  21.800  0.0000E+00  0.1480E+03
  21.810  0.0000E+00  0.1480E+03
  21.820  0.0000E+00  0.1480E+03
  21.830  0.0000E+00  0.1480E+03
  21.840  0.0000E+00  0.1480E+03
  21.850  0.0000E+00  0.1480E+03
  21.860  0.0000E+00  0.1480E+03
  21.870  0.0000E+00  0.1480E+03
  21.880  0.0000E+00  0.1480E+03
  21.890  0.0000E+00  0.1480E+03
  21.900  0.0000E+00  0.1480E+03
  21.910  0.0000E+00  0.1480E+03
  21.920  0.0000E+00  0.1480E+03
  21.930  0.0000E+00  0.1480E+03
  21.940  0.0000E+00  0.1480E+03
  21.950  0.0000E+00  0.1480E+03
  21.960  0.0000E+00  0.1480E+03
  21.970  0.0000E+00  0.1480E+03
  21.980  0.0000E+00  0.1480E+03
  21.990  0.0000E+00  0.1480E+03
  22.000  0.0000E+00  0.1480E+03
  22.010  0.0000E+00  0.1480E+03
  22.020  0.0000E+00  0.1480E+03
  22.030  0.0000E+00  0.1480E+03
  22.040  0.0000E+00  0.1480E+03
  22.050  0.0000E+00  0.1480E+03
  22.060  0.0000E+00  0.1480E+03
  22.070  0.0000E+00  0.1480E+03
  22.080  0.0000E+00  0.1480E+03
  22.090  0.0000E+00  0.1480E+03
  22.100  0.0000E+00  0.1480E+03
  22.110  0.0000E+00  0.1480E+03
  22.120  0.0000E+00  0.1480E+03
  22.130  0.0000E+00  0.1480E+03
  22.140  0.0000E+00  0.1480E+03
  22.150  0.0000E+00  0.1480E+03
  22.160  0.0000E+00  0.1480E+03
  22.170  0.0000E+00  0.1480E+03
  22.180  0.0000E+00  0.1480E+03
  22.190  0.0000E+00  0.1480E+03
  22.200  0.0000E+00  0.1480E+03
  22.210  0.0000E+00  0.1480E+03
  22.220  0.0000E+00  0.1480E+03
  22.230  0.0000E+00  0.1480E+03
  22.240  0.0000E+00  0.1480E+03
  22.250  0.0000E+00  0.1480E+03
  22.260  0.0000E+00  0.1480E+03
  22.270  0.0000E+00  0.1480E+03
  22.280  0.0000E+00  0.1480E+03
  22.290  0.0000E+00  0.1480E+03
  22.300  0.0000E+00  0.1480E+03
  22.310  0.0000E+00  0.1480E+03
  22.320  0.0000E+00  0.1480E+03
  22.330  0.0000E+00  0.1480E+03
  22.340  0.0000E+00  0.1480E+03
  22.350  0.0000E+00  0.1480E+03
  22.360  0.0000E+00  0.1480E+03
  22.370  0.0000E+00  0.1480E+03
  22.380  0.0000E+00  0.1480E+03
  22.390  0.0000E+00  0.1480E+03
  22.400  0.0000E+00  0.1480E+03
  22.410  0.0000E+00  0.1480E+03
  22.420  0.0000E+00  0.1480E+03
  22.430  0.0000E+00  0.1480E+03
  22.440  0.0000E+00  0.1480E+03
  22.450  0.0000E+00  0.1480E+03
  22.460  0.0000E+00  0.1480E+03
  22.470  0.0000E+00  0.1480E+03
  22.480  0.0000E+00  0.1480E+03
  22.490  0.0000E+00  0.1480E+03
  22.500  0.0000E+00  0.1480E+03
  22.510  0.0000E+00  0.1480E+03
  22.520  0.0000E+00  0.1480E+03
  22.530  0.0000E+00  0.1480E+03
  22.540  0.0000E+00  0.1480E+03
  22.550  0.0000E+00  0.1480E+03
  22.560  0.0000E+00  0.1480E+03
  22.570  0.0000E+00  0.1480E+03
  22.580  0.0000E+00  0.1480E+03
  22.590  0.0000E+00  0.1480E+03
  22.600  0.0000E+00  0.1480E+03
  22.610  0.0000E+00  0.1480E+03
  22.620  0.0000E+00  0.1480E+03
  22.630  0.0000E+00  0.1480E+03
  22.640  0.0000E+00  0.1480E+03
  22.650  0.0000E+00  0.1480E+03
  22.660  0.0000E+00  0.1480E+03
  22.670  0.0000E+00  0.1480E+03
  22.680  0.0000E+00  0.1480E+03
  22.690  0.0000E+00  0.1480E+03
  22.700  0.0000E+00  0.1480E+03
  22.710  0.0000E+00  0.1480E+03
  22.720  0.0000E+00  0.1480E+03
  22.730  0.0000E+00  0.1480E+03
  22.740  0.0000E+00  0.1480E+03
  22.750  0.0000E+00  0.1480E+03
  22.760  0.0000E+00  0.1480E+03
  22.770  0.0000E+00  0.1480E+03
  22.780  0.0000E+00  0.1480E+03
  22.790  0.0000E+00  0.1480E+03
  22.800  0.0000E+00  0.1480E+03
  22.810  0.0000E+00  0.1480E+03
  22.820  0.0000E+00  0.1480E+03
  22.830  0.0000E+00  0.1480E+03
  22.840  0.0000E+00  0.1480E+03
  22.850  0.0000E+00  0.1480E+03
  22.860  0.0000E+00  0.1480E+03
  22.870  0.0000E+00  0.1480E+03
  22.880  0.0000E+00  0.1480E+03
  22.890  0.0000E+00  0.1480E+03
  22.900  0.0000E+00  0.1480E+03
  22.910  0.0000E+00  0.1480E+03
  22.920  0.0000E+00  0.1480E+03
  22.930  0.0000E+00  0.1480E+03
  22.940  0.0000E+00  0.1480E+03
  22.950  0.0000E+00  0.1480E+03
  22.960  0.0000E+00  0.1480E+03
  22.970  0.0000E+00  0.1480E+03
  22.980  0.0000E+00  0.1480E+03
  22.990  0.0000E+00  0.1480E+03
  23.000  0.0000E+00  0.1480E+03
  23.010  0.0000E+00  0.1480E+03
  23.020  0.0000E+00  0.1480E+03
  23.030  0.0000E+00  0.1480E+03
  23.040  0.0000E+00  0.1480E+03
  23.050  0.0000E+00  0.1480E+03
  23.060  0.0000E+00  0.1480E+03
  23.070  0.0000E+00  0.1480E+03
  23.080  0.0000E+00  0.1480E+03
  23.090  0.0000E+00  0.1480E+03
  23.100  0.0000E+00  0.1480E+03
  23.110  0.0000E+00  0.1480E+03
  23.120  0.0000E+00  0.1480E+03
  23.130  0.0000E+00  0.1480E+03
  23.140  0.0000E+00  0.1480E+03
  23.150  0.0000E+00  0.1480E+03
  23.160  0.0000E+00  0.1480E+03
  23.170  0.0000E+00  0.1480E+03
  23.180  0.0000E+00  0.1480E+03
  23.190  0.0000E+00  0.1480E+03
  23.200  0.0000E+00  0.1480E+03
  23.210  0.0000E+00  0.1480E+03
  23.220  0.0000E+00  0.1480E+03
  23.230  0.0000E+00  0.1480E+03
  23.240  0.0000E+00  0.1480E+03
  23.250  0.0000E+00  0.1480E+03
  23.260  0.0000E+00  0.1480E+03
  23.270  0.0000E+00  0.1480E+03
  23.280  0.0000E+00  0.1480E+03
  23.290  0.0000E+00  0.1480E+03
  23.300  0.0000E+00  0.1480E+03
  23.310  0.0000E+00  0.1480E+03
  23.320  0.0000E+00  0.1480E+03
  23.330  0.0000E+00  0.1480E+03
  23.340  0.0000E+00  0.1480E+03
  23.350  0.0000E+00  0.1480E+03
  23.360  0.0000E+00  0.1480E+03
  23.370  0.0000E+00  0.1480E+03
  23.380  0.0000E+00  0.1480E+03
  23.390  0.0000E+00  0.1480E+03
  23.400  0.0000E+00  0.1480E+03
  23.410  0.0000E+00  0.1480E+03
  23.420  0.0000E+00  0.1480E+03
  23.430  0.0000E+00  0.1480E+03
  23.440  0.0000E+00  0.1480E+03
  23.450  0.0000E+00  0.1480E+03
  23.460  0.0000E+00  0.1480E+03
  23.470  0.0000E+00  0.1480E+03
  23.480  0.0000E+00  0.1480E+03
  23.490  0.0000E+00  0.1480E+03
  23.500  0.0000E+00  0.1480E+03
  23.510  0.0000E+00  0.1480E+03
  23.520  0.0000E+00  0.1480E+03
  23.530  0.0000E+00  0.1480E+03
  23.540  0.0000E+00  0.1480E+03
  23.550  0.0000E+00  0.1480E+03
  23.560  0.0000E+00  0.1480E+03
  23.570  0.0000E+00  0.1480E+03
  23.580  0.0000E+00  0.1480E+03
  23.590  0.0000E+00  0.1480E+03
  23.600  0.0000E+00  0.1480E+03
  23.610  0.0000E+00  0.1480E+03
  23.620  0.0000E+00  0.1480E+03
  23.630  0.0000E+00  0.1480E+03
  23.640  0.0000E+00  0.1480E+03
  23.650  0.0000E+00  0.1480E+03
  23.660  0.0000E+00  0.1480E+03
  23.670  0.0000E+00  0.1480E+03
  23.680  0.0000E+00  0.1480E+03
  23.690  0.0000E+00  0.1480E+03
  23.700  0.0000E+00  0.1480E+03
  23.710  0.0000E+00  0.1480E+03
  23.720  0.0000E+00  0.1480E+03
  23.730  0.0000E+00  0.1480E+03
  23.740  0.0000E+00  0.1480E+03
  23.750  0.0000E+00  0.1480E+03
  23.760  0.0000E+00  0.1480E+03
  23.770  0.0000E+00  0.1480E+03
  23.780  0.0000E+00  0.1480E+03
  23.790  0.0000E+00  0.1480E+03
  23.800  0.0000E+00  0.1480E+03
  23.810  0.0000E+00  0.1480E+03
  23.820  0.0000E+00  0.1480E+03
  23.830  0.0000E+00  0.1480E+03
  23.840  0.0000E+00  0.1480E+03
  23.850  0.0000E+00  0.1480E+03
  23.860  0.0000E+00  0.1480E+03
  23.870  0.0000E+00  0.1480E+03
  23.880  0.0000E+00  0.1480E+03
  23.890  0.0000E+00  0.1480E+03
  23.900  0.0000E+00  0.1480E+03
  23.910  0.0000E+00  0.1480E+03
  23.920  0.0000E+00  0.1480E+03
  23.930  0.0000E+00  0.1480E+03
  23.940  0.0000E+00  0.1480E+03
  23.950  0.0000E+00  0.1480E+03
  23.960  0.0000E+00  0.1480E+03
  23.970  0.0000E+00  0.1480E+03
  23.980  0.0000E+00  0.1480E+03
  23.990  0.0000E+00  0.1480E+03
  24.000  0.0000E+00  0.1480E+03
  24.010  0.0000E+00  0.1480E+03
  24.020  0.0000E+00  0.1480E+03
  24.030  0.0000E+00  0.1480E+03
  24.040  0.0000E+00  0.1480E+03
  24.050  0.0000E+00  0.1480E+03
  24.060  0.0000E+00  0.1480E+03
  24.070  0.0000E+00  0.1480E+03
  24.080  0.0000E+00  0.1480E+03
  24.090  0.0000E+00  0.1480E+03
  24.100  0.0000E+00  0.1480E+03
  24.110  0.0000E+00  0.1480E+03
  24.120  0.0000E+00  0.1480E+03
  24.130  0.0000E+00  0.1480E+03
  24.140  0.0000E+00  0.1480E+03
  24.150  0.0000E+00  0.1480E+03
  24.160  0.0000E+00  0.1480E+03
  24.170  0.0000E+00  0.1480E+03
  24.180  0.0000E+00  0.1480E+03
  24.190  0.0000E+00  0.1480E+03
  24.200  0.0000E+00  0.1480E+03
  24.210  0.0000E+00  0.1480E+03
  24.220  0.0000E+00  0.1480E+03
  24.230  0.0000E+00  0.1480E+03
  24.240  0.0000E+00  0.1480E+03
  24.250  0.0000E+00  0.1480E+03
  24.260  0.0000E+00  0.1480E+03
  24.270  0.0000E+00  0.1480E+03
  24.280  0.0000E+00  0.1480E+03
  24.290  0.0000E+00  0.1480E+03
  24.300  0.0000E+00  0.1480E+03
  24.310  0.0000E+00  0.1480E+03
  24.320  0.0000E+00  0.1480E+03
  24.330  0.0000E+00  0.1480E+03
  24.340  0.0000E+00  0.1480E+03
  24.350  0.0000E+00  0.1480E+03
  24.360  0.0000E+00  0.1480E+03
  24.370  0.0000E+00  0.1480E+03
  24.380  0.0000E+00  0.1480E+03
  24.390  0.0000E+00  0.1480E+03
  24.400  0.0000E+00  0.1480E+03
  24.410  0.0000E+00  0.1480E+03
  24.420  0.0000E+00  0.1480E+03
  24.430  0.0000E+00  0.1480E+03
  24.440  0.0000E+00  0.1480E+03
  24.450  0.0000E+00  0.1480E+03
  24.460  0.0000E+00  0.1480E+03
  24.470  0.0000E+00  0.1480E+03
  24.480  0.0000E+00  0.1480E+03
  24.490  0.0000E+00  0.1480E+03
  24.500  0.0000E+00  0.1480E+03
  24.510  0.0000E+00  0.1480E+03
  24.520  0.0000E+00  0.1480E+03
  24.530  0.0000E+00  0.1480E+03
  24.540  0.0000E+00  0.1480E+03
  24.550  0.0000E+00  0.1480E+03
  24.560  0.0000E+00  0.1480E+03
  24.570  0.0000E+00  0.1480E+03
  24.580  0.0000E+00  0.1480E+03
  24.590  0.0000E+00  0.1480E+03
  24.600  0.0000E+00  0.1480E+03
  24.610  0.0000E+00  0.1480E+03
  24.620  0.0000E+00  0.1480E+03
  24.630  0.0000E+00  0.1480E+03
  24.640  0.0000E+00  0.1480E+03
  24.650  0.0000E+00  0.1480E+03
  24.660  0.0000E+00  0.1480E+03
  24.670  0.0000E+00  0.1480E+03
  24.680  0.0000E+00  0.1480E+03
  24.690  0.0000E+00  0.1480E+03
  24.700  0.0000E+00  0.1480E+03
  24.710  0.0000E+00  0.1480E+03
  24.720  0.0000E+00  0.1480E+03
  24.730  0.0000E+00  0.1480E+03
  24.740  0.0000E+00  0.1480E+03
  24.750  0.0000E+00  0.1480E+03
  24.760  0.0000E+00  0.1480E+03
  24.770  0.0000E+00  0.1480E+03
  24.780  0.0000E+00  0.1480E+03
  24.790  0.0000E+00  0.1480E+03
  24.800  0.0000E+00  0.1480E+03
  24.810  0.0000E+00  0.1480E+03
  24.820  0.0000E+00  0.1480E+03
  24.830  0.0000E+00  0.1480E+03
  24.840  0.0000E+00  0.1480E+03
  24.850  0.0000E+00  0.1480E+03
  24.860  0.0000E+00  0.1480E+03
  24.870  0.0000E+00  0.1480E+03
  24.880  0.0000E+00  0.1480E+03
  24.890  0.0000E+00  0.1480E+03
  24.900  0.0000E+00  0.1480E+03
  24.910  0.0000E+00  0.1480E+03
  24.920  0.0000E+00  0.1480E+03
  24.930  0.0000E+00  0.1480E+03
  24.940  0.0000E+00  0.1480E+03
  24.950  0.0000E+00  0.1480E+03
  24.960  0.0000E+00  0.1480E+03
  24.970  0.0000E+00  0.1480E+03
  24.980  0.0000E+00  0.1480E+03
  24.990  0.0000E+00  0.1480E+03
  25.000  0.0000E+00  0.1480E+03
