#  E (eV)   dos(E)     Int dos(E) EFermi =   10.192 eV
   0.000  0.0000E+00  0.3600E+02
   0.010  0.0000E+00  0.3600E+02
   0.020  0.0000E+00  0.3600E+02
   0.030  0.0000E+00  0.3600E+02
   0.040  0.0000E+00  0.3600E+02
   0.050  0.0000E+00  0.3600E+02
   0.060  0.0000E+00  0.3600E+02
   0.070  0.0000E+00  0.3600E+02
   0.080  0.0000E+00  0.3600E+02
   0.090  0.0000E+00  0.3600E+02
   0.100  0.0000E+00  0.3600E+02
   0.110  0.0000E+00  0.3600E+02
   0.120  0.0000E+00  0.3600E+02
   0.130  0.0000E+00  0.3600E+02
   0.140  0.0000E+00  0.3600E+02
   0.150  0.0000E+00  0.3600E+02
   0.160  0.0000E+00  0.3600E+02
   0.170  0.0000E+00  0.3600E+02
   0.180  0.0000E+00  0.3600E+02
   0.190  0.0000E+00  0.3600E+02
   0.200  0.0000E+00  0.3600E+02
   0.210  0.0000E+00  0.3600E+02
   0.220  0.0000E+00  0.3600E+02
   0.230  0.0000E+00  0.3600E+02
   0.240  0.0000E+00  0.3600E+02
   0.250  0.0000E+00  0.3600E+02
   0.260  0.0000E+00  0.3600E+02
   0.270  0.0000E+00  0.3600E+02
   0.280  0.0000E+00  0.3600E+02
   0.290  0.0000E+00  0.3600E+02
   0.300  0.0000E+00  0.3600E+02
   0.310  0.0000E+00  0.3600E+02
   0.320  0.0000E+00  0.3600E+02
   0.330  0.0000E+00  0.3600E+02
   0.340  0.0000E+00  0.3600E+02
   0.350  0.0000E+00  0.3600E+02
   0.360  0.0000E+00  0.3600E+02
   0.370  0.0000E+00  0.3600E+02
   0.380  0.0000E+00  0.3600E+02
   0.390  0.0000E+00  0.3600E+02
   0.400  0.0000E+00  0.3600E+02
   0.410  0.0000E+00  0.3600E+02
   0.420  0.0000E+00  0.3600E+02
   0.430  0.0000E+00  0.3600E+02
   0.440  0.0000E+00  0.3600E+02
   0.450  0.0000E+00  0.3600E+02
   0.460  0.0000E+00  0.3600E+02
   0.470  0.0000E+00  0.3600E+02
   0.480  0.0000E+00  0.3600E+02
   0.490  0.0000E+00  0.3600E+02
   0.500  0.0000E+00  0.3600E+02
   0.510  0.0000E+00  0.3600E+02
   0.520  0.0000E+00  0.3600E+02
   0.530  0.0000E+00  0.3600E+02
   0.540  0.0000E+00  0.3600E+02
   0.550  0.0000E+00  0.3600E+02
   0.560  0.0000E+00  0.3600E+02
   0.570  0.0000E+00  0.3600E+02
   0.580  0.0000E+00  0.3600E+02
   0.590  0.0000E+00  0.3600E+02
   0.600  0.0000E+00  0.3600E+02
   0.610  0.0000E+00  0.3600E+02
   0.620  0.0000E+00  0.3600E+02
   0.630  0.0000E+00  0.3600E+02
   0.640  0.0000E+00  0.3600E+02
   0.650  0.0000E+00  0.3600E+02
   0.660  0.0000E+00  0.3600E+02
   0.670  0.0000E+00  0.3600E+02
   0.680  0.0000E+00  0.3600E+02
   0.690  0.0000E+00  0.3600E+02
   0.700  0.0000E+00  0.3600E+02
   0.710  0.0000E+00  0.3600E+02
   0.720  0.0000E+00  0.3600E+02
   0.730  0.0000E+00  0.3600E+02
   0.740  0.0000E+00  0.3600E+02
   0.750  0.0000E+00  0.3600E+02
   0.760  0.0000E+00  0.3600E+02
   0.770  0.0000E+00  0.3600E+02
   0.780  0.0000E+00  0.3600E+02
   0.790  0.0000E+00  0.3600E+02
   0.800  0.0000E+00  0.3600E+02
   0.810  0.0000E+00  0.3600E+02
   0.820  0.0000E+00  0.3600E+02
   0.830  0.0000E+00  0.3600E+02
   0.840  0.0000E+00  0.3600E+02
   0.850  0.0000E+00  0.3600E+02
   0.860  0.0000E+00  0.3600E+02
   0.870  0.0000E+00  0.3600E+02
   0.880  0.0000E+00  0.3600E+02
   0.890  0.0000E+00  0.3600E+02
   0.900  0.0000E+00  0.3600E+02
   0.910  0.0000E+00  0.3600E+02
   0.920  0.0000E+00  0.3600E+02
   0.930  0.0000E+00  0.3600E+02
   0.940  0.0000E+00  0.3600E+02
   0.950  0.0000E+00  0.3600E+02
   0.960  0.0000E+00  0.3600E+02
   0.970  0.0000E+00  0.3600E+02
   0.980  0.0000E+00  0.3600E+02
   0.990  0.0000E+00  0.3600E+02
   1.000  0.0000E+00  0.3600E+02
   1.010  0.0000E+00  0.3600E+02
   1.020  0.0000E+00  0.3600E+02
   1.030  0.0000E+00  0.3600E+02
   1.040  0.0000E+00  0.3600E+02
   1.050  0.0000E+00  0.3600E+02
   1.060  0.0000E+00  0.3600E+02
   1.070  0.0000E+00  0.3600E+02
   1.080  0.0000E+00  0.3600E+02
   1.090  0.0000E+00  0.3600E+02
   1.100  0.0000E+00  0.3600E+02
   1.110  0.0000E+00  0.3600E+02
   1.120  0.0000E+00  0.3600E+02
   1.130  0.0000E+00  0.3600E+02
   1.140  0.0000E+00  0.3600E+02
   1.150  0.0000E+00  0.3600E+02
   1.160  0.0000E+00  0.3600E+02
   1.170  0.0000E+00  0.3600E+02
   1.180  0.0000E+00  0.3600E+02
   1.190  0.0000E+00  0.3600E+02
   1.200  0.0000E+00  0.3600E+02
   1.210  0.0000E+00  0.3600E+02
   1.220  0.0000E+00  0.3600E+02
   1.230  0.0000E+00  0.3600E+02
   1.240  0.0000E+00  0.3600E+02
   1.250  0.0000E+00  0.3600E+02
   1.260  0.0000E+00  0.3600E+02
   1.270  0.0000E+00  0.3600E+02
   1.280  0.0000E+00  0.3600E+02
   1.290  0.0000E+00  0.3600E+02
   1.300  0.0000E+00  0.3600E+02
   1.310  0.0000E+00  0.3600E+02
   1.320  0.0000E+00  0.3600E+02
   1.330  0.0000E+00  0.3600E+02
   1.340  0.0000E+00  0.3600E+02
   1.350  0.0000E+00  0.3600E+02
   1.360  0.0000E+00  0.3600E+02
   1.370  0.0000E+00  0.3600E+02
   1.380  0.0000E+00  0.3600E+02
   1.390  0.0000E+00  0.3600E+02
   1.400  0.0000E+00  0.3600E+02
   1.410  0.0000E+00  0.3600E+02
   1.420  0.0000E+00  0.3600E+02
   1.430  0.0000E+00  0.3600E+02
   1.440  0.0000E+00  0.3600E+02
   1.450  0.0000E+00  0.3600E+02
   1.460  0.0000E+00  0.3600E+02
   1.470  0.0000E+00  0.3600E+02
   1.480  0.0000E+00  0.3600E+02
   1.490  0.0000E+00  0.3600E+02
   1.500  0.0000E+00  0.3600E+02
   1.510  0.0000E+00  0.3600E+02
   1.520  0.0000E+00  0.3600E+02
   1.530  0.0000E+00  0.3600E+02
   1.540  0.0000E+00  0.3600E+02
   1.550  0.0000E+00  0.3600E+02
   1.560  0.0000E+00  0.3600E+02
   1.570  0.0000E+00  0.3600E+02
   1.580  0.0000E+00  0.3600E+02
   1.590  0.0000E+00  0.3600E+02
   1.600  0.0000E+00  0.3600E+02
   1.610  0.0000E+00  0.3600E+02
   1.620  0.0000E+00  0.3600E+02
   1.630  0.0000E+00  0.3600E+02
   1.640  0.0000E+00  0.3600E+02
   1.650  0.0000E+00  0.3600E+02
   1.660  0.0000E+00  0.3600E+02
   1.670  0.0000E+00  0.3600E+02
   1.680  0.0000E+00  0.3600E+02
   1.690  0.0000E+00  0.3600E+02
   1.700  0.0000E+00  0.3600E+02
   1.710  0.0000E+00  0.3600E+02
   1.720  0.0000E+00  0.3600E+02
   1.730  0.0000E+00  0.3600E+02
   1.740  0.0000E+00  0.3600E+02
   1.750  0.0000E+00  0.3600E+02
   1.760  0.0000E+00  0.3600E+02
   1.770  0.0000E+00  0.3600E+02
   1.780  0.0000E+00  0.3600E+02
   1.790  0.0000E+00  0.3600E+02
   1.800  0.0000E+00  0.3600E+02
   1.810  0.0000E+00  0.3600E+02
   1.820  0.0000E+00  0.3600E+02
   1.830  0.0000E+00  0.3600E+02
   1.840  0.0000E+00  0.3600E+02
   1.850  0.0000E+00  0.3600E+02
   1.860  0.0000E+00  0.3600E+02
   1.870  0.0000E+00  0.3600E+02
   1.880  0.0000E+00  0.3600E+02
   1.890  0.0000E+00  0.3600E+02
   1.900  0.0000E+00  0.3600E+02
   1.910  0.0000E+00  0.3600E+02
   1.920  0.0000E+00  0.3600E+02
   1.930  0.0000E+00  0.3600E+02
   1.940  0.0000E+00  0.3600E+02
   1.950  0.0000E+00  0.3600E+02
   1.960  0.0000E+00  0.3600E+02
   1.970  0.0000E+00  0.3600E+02
   1.980  0.0000E+00  0.3600E+02
   1.990  0.0000E+00  0.3600E+02
   2.000  0.0000E+00  0.3600E+02
   2.010  0.0000E+00  0.3600E+02
   2.020  0.0000E+00  0.3600E+02
   2.030  0.0000E+00  0.3600E+02
   2.040  0.0000E+00  0.3600E+02
   2.050  0.0000E+00  0.3600E+02
   2.060  0.0000E+00  0.3600E+02
   2.070  0.0000E+00  0.3600E+02
   2.080  0.0000E+00  0.3600E+02
   2.090  0.0000E+00  0.3600E+02
   2.100  0.0000E+00  0.3600E+02
   2.110  0.0000E+00  0.3600E+02
   2.120  0.0000E+00  0.3600E+02
   2.130  0.0000E+00  0.3600E+02
   2.140  0.0000E+00  0.3600E+02
   2.150  0.0000E+00  0.3600E+02
   2.160  0.0000E+00  0.3600E+02
   2.170  0.0000E+00  0.3600E+02
   2.180  0.0000E+00  0.3600E+02
   2.190  0.0000E+00  0.3600E+02
   2.200  0.0000E+00  0.3600E+02
   2.210  0.0000E+00  0.3600E+02
   2.220  0.2259E+01  0.3601E+02
   2.230  0.2368E+01  0.3603E+02
   2.240  0.3470E+00  0.3604E+02
   2.250  0.3559E+00  0.3604E+02
   2.260  0.3649E+00  0.3604E+02
   2.270  0.3738E+00  0.3605E+02
   2.280  0.3828E+00  0.3605E+02
   2.290  0.3917E+00  0.3606E+02
   2.300  0.4007E+00  0.3606E+02
   2.310  0.4096E+00  0.3606E+02
   2.320  0.4186E+00  0.3607E+02
   2.330  0.4275E+00  0.3607E+02
   2.340  0.4365E+00  0.3608E+02
   2.350  0.4454E+00  0.3608E+02
   2.360  0.4544E+00  0.3608E+02
   2.370  0.4633E+00  0.3609E+02
   2.380  0.4723E+00  0.3609E+02
   2.390  0.4812E+00  0.3610E+02
   2.400  0.4902E+00  0.3610E+02
   2.410  0.4991E+00  0.3611E+02
   2.420  0.5081E+00  0.3611E+02
   2.430  0.5170E+00  0.3612E+02
   2.440  0.5260E+00  0.3612E+02
   2.450  0.5349E+00  0.3613E+02
   2.460  0.5439E+00  0.3613E+02
   2.470  0.5528E+00  0.3614E+02
   2.480  0.5617E+00  0.3615E+02
   2.490  0.5707E+00  0.3615E+02
   2.500  0.5796E+00  0.3616E+02
   2.510  0.5886E+00  0.3616E+02
   2.520  0.5975E+00  0.3617E+02
   2.530  0.6065E+00  0.3617E+02
   2.540  0.6154E+00  0.3618E+02
   2.550  0.6244E+00  0.3619E+02
   2.560  0.6333E+00  0.3619E+02
   2.570  0.6423E+00  0.3620E+02
   2.580  0.6512E+00  0.3621E+02
   2.590  0.6602E+00  0.3621E+02
   2.600  0.6244E+00  0.3622E+02
   2.610  0.5883E+00  0.3623E+02
   2.620  0.5923E+00  0.3623E+02
   2.630  0.5963E+00  0.3624E+02
   2.640  0.6003E+00  0.3624E+02
   2.650  0.6043E+00  0.3625E+02
   2.660  0.6083E+00  0.3626E+02
   2.670  0.6123E+00  0.3626E+02
   2.680  0.6163E+00  0.3627E+02
   2.690  0.6203E+00  0.3627E+02
   2.700  0.6243E+00  0.3628E+02
   2.710  0.6284E+00  0.3629E+02
   2.720  0.6324E+00  0.3629E+02
   2.730  0.6364E+00  0.3630E+02
   2.740  0.6404E+00  0.3631E+02
   2.750  0.6444E+00  0.3631E+02
   2.760  0.6484E+00  0.3632E+02
   2.770  0.6524E+00  0.3632E+02
   2.780  0.6564E+00  0.3633E+02
   2.790  0.6604E+00  0.3634E+02
   2.800  0.6644E+00  0.3634E+02
   2.810  0.6684E+00  0.3635E+02
   2.820  0.6724E+00  0.3636E+02
   2.830  0.6764E+00  0.3636E+02
   2.840  0.6804E+00  0.3637E+02
   2.850  0.6844E+00  0.3638E+02
   2.860  0.1871E+01  0.3640E+02
   2.870  0.2467E+01  0.3642E+02
   2.880  0.1112E+01  0.3644E+02
   2.890  0.1128E+01  0.3645E+02
   2.900  0.1145E+01  0.3646E+02
   2.910  0.1161E+01  0.3647E+02
   2.920  0.1177E+01  0.3648E+02
   2.930  0.1193E+01  0.3650E+02
   2.940  0.1210E+01  0.3651E+02
   2.950  0.1226E+01  0.3652E+02
   2.960  0.1242E+01  0.3653E+02
   2.970  0.1259E+01  0.3654E+02
   2.980  0.1277E+01  0.3656E+02
   2.990  0.1294E+01  0.3657E+02
   3.000  0.1311E+01  0.3658E+02
   3.010  0.1329E+01  0.3660E+02
   3.020  0.1346E+01  0.3661E+02
   3.030  0.1364E+01  0.3662E+02
   3.040  0.1381E+01  0.3664E+02
   3.050  0.1398E+01  0.3665E+02
   3.060  0.1416E+01  0.3666E+02
   3.070  0.1433E+01  0.3668E+02
   3.080  0.1450E+01  0.3669E+02
   3.090  0.1468E+01  0.3671E+02
   3.100  0.1485E+01  0.3672E+02
   3.110  0.1503E+01  0.3674E+02
   3.120  0.1643E+01  0.3675E+02
   3.130  0.1716E+01  0.3677E+02
   3.140  0.1743E+01  0.3679E+02
   3.150  0.1770E+01  0.3681E+02
   3.160  0.1796E+01  0.3682E+02
   3.170  0.1823E+01  0.3684E+02
   3.180  0.1845E+01  0.3686E+02
   3.190  0.1869E+01  0.3688E+02
   3.200  0.1896E+01  0.3690E+02
   3.210  0.1923E+01  0.3692E+02
   3.220  0.1950E+01  0.3694E+02
   3.230  0.1976E+01  0.3695E+02
   3.240  0.2003E+01  0.3697E+02
   3.250  0.2030E+01  0.3699E+02
   3.260  0.2057E+01  0.3702E+02
   3.270  0.2084E+01  0.3704E+02
   3.280  0.2110E+01  0.3706E+02
   3.290  0.2137E+01  0.3708E+02
   3.300  0.2164E+01  0.3710E+02
   3.310  0.2191E+01  0.3712E+02
   3.320  0.2218E+01  0.3714E+02
   3.330  0.2244E+01  0.3717E+02
   3.340  0.2271E+01  0.3719E+02
   3.350  0.2298E+01  0.3721E+02
   3.360  0.2325E+01  0.3723E+02
   3.370  0.2352E+01  0.3726E+02
   3.380  0.2378E+01  0.3728E+02
   3.390  0.2405E+01  0.3731E+02
   3.400  0.2432E+01  0.3733E+02
   3.410  0.2459E+01  0.3735E+02
   3.420  0.9196E+01  0.3740E+02
   3.430  0.2466E+01  0.3747E+02
   3.440  0.2473E+01  0.3749E+02
   3.450  0.2481E+01  0.3752E+02
   3.460  0.2487E+01  0.3754E+02
   3.470  0.2489E+01  0.3757E+02
   3.480  0.2487E+01  0.3759E+02
   3.490  0.2533E+01  0.3761E+02
   3.500  0.2967E+01  0.3764E+02
   3.510  0.3226E+01  0.3767E+02
   3.520  0.3268E+01  0.3771E+02
   3.530  0.3310E+01  0.3774E+02
   3.540  0.3351E+01  0.3777E+02
   3.550  0.3393E+01  0.3781E+02
   3.560  0.3435E+01  0.3784E+02
   3.570  0.3477E+01  0.3788E+02
   3.580  0.3519E+01  0.3791E+02
   3.590  0.3561E+01  0.3795E+02
   3.600  0.3602E+01  0.3798E+02
   3.610  0.1060E+02  0.3803E+02
   3.620  0.2974E+01  0.3811E+02
   3.630  0.2949E+01  0.3814E+02
   3.640  0.2924E+01  0.3817E+02
   3.650  0.2900E+01  0.3820E+02
   3.660  0.2875E+01  0.3823E+02
   3.670  0.2850E+01  0.3826E+02
   3.680  0.2825E+01  0.3829E+02
   3.690  0.2801E+01  0.3831E+02
   3.700  0.2776E+01  0.3834E+02
   3.710  0.2751E+01  0.3837E+02
   3.720  0.2727E+01  0.3840E+02
   3.730  0.2702E+01  0.3842E+02
   3.740  0.2677E+01  0.3845E+02
   3.750  0.2626E+01  0.3848E+02
   3.760  0.2516E+01  0.3850E+02
   3.770  0.2480E+01  0.3853E+02
   3.780  0.2464E+01  0.3855E+02
   3.790  0.2448E+01  0.3858E+02
   3.800  0.2432E+01  0.3860E+02
   3.810  0.2417E+01  0.3863E+02
   3.820  0.2397E+01  0.3865E+02
   3.830  0.2363E+01  0.3867E+02
   3.840  0.2323E+01  0.3870E+02
   3.850  0.2293E+01  0.3872E+02
   3.860  0.2263E+01  0.3874E+02
   3.870  0.2234E+01  0.3877E+02
   3.880  0.2204E+01  0.3879E+02
   3.890  0.2174E+01  0.3881E+02
   3.900  0.2145E+01  0.3883E+02
   3.910  0.2094E+01  0.3885E+02
   3.920  0.2009E+01  0.3887E+02
   3.930  0.1994E+01  0.3889E+02
   3.940  0.1980E+01  0.3891E+02
   3.950  0.1966E+01  0.3893E+02
   3.960  0.1951E+01  0.3895E+02
   3.970  0.1937E+01  0.3897E+02
   3.980  0.1923E+01  0.3899E+02
   3.990  0.1911E+01  0.3901E+02
   4.000  0.1901E+01  0.3903E+02
   4.010  0.1891E+01  0.3905E+02
   4.020  0.1881E+01  0.3907E+02
   4.030  0.1871E+01  0.3909E+02
   4.040  0.1861E+01  0.3910E+02
   4.050  0.1851E+01  0.3912E+02
   4.060  0.1841E+01  0.3914E+02
   4.070  0.1831E+01  0.3916E+02
   4.080  0.1822E+01  0.3918E+02
   4.090  0.1812E+01  0.3920E+02
   4.100  0.1802E+01  0.3921E+02
   4.110  0.1792E+01  0.3923E+02
   4.120  0.2929E+01  0.3926E+02
   4.130  0.3171E+01  0.3929E+02
   4.140  0.4304E+01  0.3935E+02
   4.150  0.3700E+01  0.3940E+02
   4.160  0.3832E+01  0.3943E+02
   4.170  0.3963E+01  0.3947E+02
   4.180  0.4095E+01  0.3951E+02
   4.190  0.4227E+01  0.3956E+02
   4.200  0.5063E+01  0.3964E+02
   4.210  0.5263E+01  0.3969E+02
   4.220  0.5476E+01  0.3974E+02
   4.230  0.5690E+01  0.3980E+02
   4.240  0.5903E+01  0.3985E+02
   4.250  0.5724E+01  0.3991E+02
   4.260  0.5792E+01  0.3997E+02
   4.270  0.5860E+01  0.4003E+02
   4.280  0.6234E+01  0.4009E+02
   4.290  0.6440E+01  0.4015E+02
   4.300  0.6286E+01  0.4022E+02
   4.310  0.6256E+01  0.4028E+02
   4.320  0.6227E+01  0.4034E+02
   4.330  0.6874E+01  0.4041E+02
   4.340  0.6714E+01  0.4047E+02
   4.350  0.6421E+01  0.4054E+02
   4.360  0.6128E+01  0.4060E+02
   4.370  0.5779E+01  0.4066E+02
   4.380  0.5627E+01  0.4072E+02
   4.390  0.5500E+01  0.4078E+02
   4.400  0.5421E+01  0.4083E+02
   4.410  0.5437E+01  0.4088E+02
   4.420  0.5453E+01  0.4094E+02
   4.430  0.5469E+01  0.4099E+02
   4.440  0.5485E+01  0.4105E+02
   4.450  0.5502E+01  0.4110E+02
   4.460  0.5518E+01  0.4116E+02
   4.470  0.5534E+01  0.4121E+02
   4.480  0.4932E+01  0.4130E+02
   4.490  0.4977E+01  0.4135E+02
   4.500  0.5022E+01  0.4140E+02
   4.510  0.5068E+01  0.4145E+02
   4.520  0.5113E+01  0.4150E+02
   4.530  0.4632E+01  0.4158E+02
   4.540  0.4560E+01  0.4162E+02
   4.550  0.1300E+02  0.4169E+02
   4.560  0.6630E+01  0.4177E+02
   4.570  0.6775E+01  0.4184E+02
   4.580  0.6920E+01  0.4190E+02
   4.590  0.7654E+01  0.4198E+02
   4.600  0.7921E+01  0.4205E+02
   4.610  0.9913E+01  0.4214E+02
   4.620  0.9429E+01  0.4224E+02
   4.630  0.8946E+01  0.4233E+02
   4.640  0.8465E+01  0.4242E+02
   4.650  0.8156E+01  0.4250E+02
   4.660  0.7862E+01  0.4258E+02
   4.670  0.7915E+01  0.4267E+02
   4.680  0.7092E+01  0.4274E+02
   4.690  0.6872E+01  0.4281E+02
   4.700  0.5556E+01  0.4288E+02
   4.710  0.5508E+01  0.4293E+02
   4.720  0.5460E+01  0.4299E+02
   4.730  0.5411E+01  0.4304E+02
   4.740  0.5476E+01  0.4310E+02
   4.750  0.5563E+01  0.4315E+02
   4.760  0.5514E+01  0.4321E+02
   4.770  0.5396E+01  0.4326E+02
   4.780  0.5365E+01  0.4332E+02
   4.790  0.5377E+01  0.4337E+02
   4.800  0.5389E+01  0.4342E+02
   4.810  0.5401E+01  0.4348E+02
   4.820  0.5413E+01  0.4353E+02
   4.830  0.5425E+01  0.4359E+02
   4.840  0.5437E+01  0.4364E+02
   4.850  0.5450E+01  0.4370E+02
   4.860  0.5462E+01  0.4375E+02
   4.870  0.5777E+01  0.4381E+02
   4.880  0.1991E+02  0.4396E+02
   4.890  0.8630E+01  0.4416E+02
   4.900  0.1183E+02  0.4427E+02
   4.910  0.1410E+02  0.4440E+02
   4.920  0.1544E+02  0.4456E+02
   4.930  0.1523E+02  0.4471E+02
   4.940  0.1443E+02  0.4486E+02
   4.950  0.1417E+02  0.4500E+02
   4.960  0.1781E+02  0.4515E+02
   4.970  0.1179E+02  0.4541E+02
   4.980  0.1757E+02  0.4561E+02
   4.990  0.1938E+02  0.4580E+02
   5.000  0.1543E+02  0.4597E+02
   5.010  0.9539E+01  0.4610E+02
   5.020  0.8853E+01  0.4619E+02
   5.030  0.8130E+01  0.4627E+02
   5.040  0.7508E+01  0.4635E+02
   5.050  0.7123E+01  0.4643E+02
   5.060  0.6788E+01  0.4649E+02
   5.070  0.6453E+01  0.4656E+02
   5.080  0.7507E+01  0.4663E+02
   5.090  0.2899E+01  0.4669E+02
   5.100  0.2981E+01  0.4672E+02
   5.110  0.5087E+01  0.4677E+02
   5.120  0.5968E+01  0.4683E+02
   5.130  0.7583E+01  0.4689E+02
   5.140  0.8118E+01  0.4697E+02
   5.150  0.1977E+02  0.4709E+02
   5.160  0.2472E+02  0.4735E+02
   5.170  0.1969E+02  0.4756E+02
   5.180  0.2203E+02  0.4778E+02
   5.190  0.2021E+02  0.4799E+02
   5.200  0.1806E+02  0.4818E+02
   5.210  0.1941E+02  0.4837E+02
   5.220  0.8956E+01  0.4849E+02
   5.230  0.5488E+01  0.4857E+02
   5.240  0.2385E+01  0.4860E+02
   5.250  0.2817E+01  0.4862E+02
   5.260  0.3283E+01  0.4865E+02
   5.270  0.3363E+01  0.4869E+02
   5.280  0.3443E+01  0.4872E+02
   5.290  0.3523E+01  0.4876E+02
   5.300  0.3602E+01  0.4879E+02
   5.310  0.3682E+01  0.4883E+02
   5.320  0.3762E+01  0.4887E+02
   5.330  0.3742E+01  0.4890E+02
   5.340  0.3798E+01  0.4894E+02
   5.350  0.3886E+01  0.4898E+02
   5.360  0.4207E+01  0.4902E+02
   5.370  0.4482E+01  0.4906E+02
   5.380  0.4841E+01  0.4911E+02
   5.390  0.4855E+01  0.4916E+02
   5.400  0.4869E+01  0.4921E+02
   5.410  0.4883E+01  0.4926E+02
   5.420  0.4897E+01  0.4930E+02
   5.430  0.4910E+01  0.4935E+02
   5.440  0.4924E+01  0.4940E+02
   5.450  0.4938E+01  0.4945E+02
   5.460  0.4952E+01  0.4950E+02
   5.470  0.4966E+01  0.4955E+02
   5.480  0.4980E+01  0.4960E+02
   5.490  0.7629E+01  0.4966E+02
   5.500  0.5248E+01  0.4973E+02
   5.510  0.5144E+01  0.4979E+02
   5.520  0.5041E+01  0.4984E+02
   5.530  0.4937E+01  0.4989E+02
   5.540  0.4833E+01  0.4994E+02
   5.550  0.4730E+01  0.4998E+02
   5.560  0.4626E+01  0.5003E+02
   5.570  0.6730E+01  0.5009E+02
   5.580  0.9190E+01  0.5018E+02
   5.590  0.6777E+01  0.5028E+02
   5.600  0.4381E+01  0.5034E+02
   5.610  0.4240E+01  0.5038E+02
   5.620  0.4099E+01  0.5042E+02
   5.630  0.3058E+01  0.5049E+02
   5.640  0.3022E+01  0.5052E+02
   5.650  0.4097E+01  0.5059E+02
   5.660  0.4240E+01  0.5063E+02
   5.670  0.4383E+01  0.5067E+02
   5.680  0.4526E+01  0.5072E+02
   5.690  0.4669E+01  0.5077E+02
   5.700  0.4812E+01  0.5081E+02
   5.710  0.5005E+01  0.5086E+02
   5.720  0.5511E+01  0.5091E+02
   5.730  0.6229E+01  0.5097E+02
   5.740  0.6947E+01  0.5104E+02
   5.750  0.7664E+01  0.5111E+02
   5.760  0.8382E+01  0.5119E+02
   5.770  0.9100E+01  0.5128E+02
   5.780  0.7747E+01  0.5136E+02
   5.790  0.8101E+01  0.5144E+02
   5.800  0.8459E+01  0.5152E+02
   5.810  0.9692E+01  0.5175E+02
   5.820  0.9741E+01  0.5185E+02
   5.830  0.1037E+02  0.5196E+02
   5.840  0.7517E+01  0.5204E+02
   5.850  0.4409E+01  0.5212E+02
   5.860  0.4476E+01  0.5217E+02
   5.870  0.4542E+01  0.5221E+02
   5.880  0.4603E+01  0.5226E+02
   5.890  0.4655E+01  0.5230E+02
   5.900  0.4702E+01  0.5235E+02
   5.910  0.4752E+01  0.5240E+02
   5.920  0.4816E+01  0.5244E+02
   5.930  0.4880E+01  0.5249E+02
   5.940  0.8483E+01  0.5257E+02
   5.950  0.1351E+02  0.5268E+02
   5.960  0.9338E+01  0.5278E+02
   5.970  0.8938E+01  0.5287E+02
   5.980  0.9031E+01  0.5296E+02
   5.990  0.4993E+01  0.5303E+02
   6.000  0.4196E+01  0.5307E+02
   6.010  0.3479E+01  0.5311E+02
   6.020  0.1762E+01  0.5315E+02
   6.030  0.1744E+01  0.5317E+02
   6.040  0.1725E+01  0.5319E+02
   6.050  0.6575E+01  0.5326E+02
   6.060  0.1488E+02  0.5335E+02
   6.070  0.8681E+01  0.5346E+02
   6.080  0.9263E+01  0.5355E+02
   6.090  0.8971E+01  0.5364E+02
   6.100  0.9198E+01  0.5373E+02
   6.110  0.9365E+01  0.5383E+02
   6.120  0.9590E+01  0.5392E+02
   6.130  0.1066E+02  0.5402E+02
   6.140  0.1344E+02  0.5420E+02
   6.150  0.1062E+02  0.5432E+02
   6.160  0.8487E+01  0.5441E+02
   6.170  0.8253E+01  0.5449E+02
   6.180  0.8046E+01  0.5458E+02
   6.190  0.7838E+01  0.5466E+02
   6.200  0.7921E+01  0.5473E+02
   6.210  0.7911E+01  0.5481E+02
   6.220  0.8000E+01  0.5489E+02
   6.230  0.7924E+01  0.5497E+02
   6.240  0.7856E+01  0.5505E+02
   6.250  0.7841E+01  0.5513E+02
   6.260  0.7601E+01  0.5521E+02
   6.270  0.7039E+01  0.5528E+02
   6.280  0.6836E+01  0.5535E+02
   6.290  0.6655E+01  0.5542E+02
   6.300  0.6047E+01  0.5548E+02
   6.310  0.5942E+01  0.5554E+02
   6.320  0.5847E+01  0.5560E+02
   6.330  0.5761E+01  0.5566E+02
   6.340  0.5680E+01  0.5571E+02
   6.350  0.5599E+01  0.5577E+02
   6.360  0.5528E+01  0.5583E+02
   6.370  0.5465E+01  0.5588E+02
   6.380  0.5504E+01  0.5594E+02
   6.390  0.5980E+01  0.5599E+02
   6.400  0.6979E+01  0.5606E+02
   6.410  0.7294E+01  0.5613E+02
   6.420  0.7590E+01  0.5620E+02
   6.430  0.7885E+01  0.5628E+02
   6.440  0.1482E+02  0.5639E+02
   6.450  0.1214E+02  0.5653E+02
   6.460  0.1003E+02  0.5666E+02
   6.470  0.1035E+02  0.5677E+02
   6.480  0.1052E+02  0.5687E+02
   6.490  0.1054E+02  0.5698E+02
   6.500  0.1006E+02  0.5709E+02
   6.510  0.1014E+02  0.5719E+02
   6.520  0.1012E+02  0.5729E+02
   6.530  0.1019E+02  0.5739E+02
   6.540  0.1426E+02  0.5752E+02
   6.550  0.1670E+02  0.5767E+02
   6.560  0.1474E+02  0.5783E+02
   6.570  0.1551E+02  0.5798E+02
   6.580  0.1787E+02  0.5817E+02
   6.590  0.2084E+02  0.5836E+02
   6.600  0.1236E+02  0.5854E+02
   6.610  0.1030E+02  0.5865E+02
   6.620  0.9298E+01  0.5875E+02
   6.630  0.8676E+01  0.5884E+02
   6.640  0.8246E+01  0.5892E+02
   6.650  0.7937E+01  0.5900E+02
   6.660  0.7662E+01  0.5908E+02
   6.670  0.7653E+01  0.5916E+02
   6.680  0.7640E+01  0.5923E+02
   6.690  0.7660E+01  0.5931E+02
   6.700  0.9347E+01  0.5941E+02
   6.710  0.8656E+01  0.5950E+02
   6.720  0.8933E+01  0.5959E+02
   6.730  0.8980E+01  0.5968E+02
   6.740  0.8956E+01  0.5977E+02
   6.750  0.9158E+01  0.5986E+02
   6.760  0.9340E+01  0.5995E+02
   6.770  0.9907E+01  0.6004E+02
   6.780  0.1007E+02  0.6014E+02
   6.790  0.9492E+01  0.6025E+02
   6.800  0.9749E+01  0.6035E+02
   6.810  0.1010E+02  0.6045E+02
   6.820  0.1029E+02  0.6055E+02
   6.830  0.1318E+02  0.6066E+02
   6.840  0.1049E+02  0.6079E+02
   6.850  0.1083E+02  0.6089E+02
   6.860  0.1151E+02  0.6101E+02
   6.870  0.1201E+02  0.6112E+02
   6.880  0.1358E+02  0.6126E+02
   6.890  0.1494E+02  0.6140E+02
   6.900  0.1578E+02  0.6156E+02
   6.910  0.1678E+02  0.6173E+02
   6.920  0.1658E+02  0.6190E+02
   6.930  0.1662E+02  0.6206E+02
   6.940  0.1700E+02  0.6223E+02
   6.950  0.1573E+02  0.6239E+02
   6.960  0.1836E+02  0.6257E+02
   6.970  0.1782E+02  0.6275E+02
   6.980  0.1836E+02  0.6293E+02
   6.990  0.1917E+02  0.6313E+02
   7.000  0.1906E+02  0.6332E+02
   7.010  0.1840E+02  0.6352E+02
   7.020  0.1613E+02  0.6369E+02
   7.030  0.1300E+02  0.6384E+02
   7.040  0.1143E+02  0.6396E+02
   7.050  0.1574E+02  0.6411E+02
   7.060  0.6367E+01  0.6418E+02
   7.070  0.6263E+01  0.6424E+02
   7.080  0.6538E+01  0.6431E+02
   7.090  0.6813E+01  0.6438E+02
   7.100  0.6152E+01  0.6444E+02
   7.110  0.7049E+01  0.6451E+02
   7.120  0.5647E+01  0.6457E+02
   7.130  0.5985E+01  0.6463E+02
   7.140  0.7440E+01  0.6471E+02
   7.150  0.8738E+01  0.6479E+02
   7.160  0.7542E+01  0.6487E+02
   7.170  0.9442E+01  0.6496E+02
   7.180  0.1005E+02  0.6505E+02
   7.190  0.9750E+01  0.6515E+02
   7.200  0.8453E+01  0.6527E+02
   7.210  0.8676E+01  0.6535E+02
   7.220  0.9934E+01  0.6547E+02
   7.230  0.9918E+01  0.6557E+02
   7.240  0.1015E+02  0.6567E+02
   7.250  0.1072E+02  0.6577E+02
   7.260  0.1351E+02  0.6590E+02
   7.270  0.1065E+02  0.6601E+02
   7.280  0.1076E+02  0.6612E+02
   7.290  0.1082E+02  0.6623E+02
   7.300  0.1091E+02  0.6633E+02
   7.310  0.1036E+02  0.6646E+02
   7.320  0.1011E+02  0.6657E+02
   7.330  0.1006E+02  0.6667E+02
   7.340  0.1006E+02  0.6677E+02
   7.350  0.1015E+02  0.6687E+02
   7.360  0.1062E+02  0.6697E+02
   7.370  0.1115E+02  0.6708E+02
   7.380  0.1165E+02  0.6719E+02
   7.390  0.1313E+02  0.6733E+02
   7.400  0.1356E+02  0.6746E+02
   7.410  0.1420E+02  0.6761E+02
   7.420  0.1373E+02  0.6775E+02
   7.430  0.1249E+02  0.6790E+02
   7.440  0.1110E+02  0.6802E+02
   7.450  0.9520E+01  0.6812E+02
   7.460  0.9296E+01  0.6822E+02
   7.470  0.9243E+01  0.6831E+02
   7.480  0.9765E+01  0.6840E+02
   7.490  0.9852E+01  0.6850E+02
   7.500  0.1002E+02  0.6860E+02
   7.510  0.1050E+02  0.6871E+02
   7.520  0.1031E+02  0.6882E+02
   7.530  0.1035E+02  0.6892E+02
   7.540  0.1040E+02  0.6902E+02
   7.550  0.1093E+02  0.6913E+02
   7.560  0.1672E+02  0.6929E+02
   7.570  0.1797E+02  0.6948E+02
   7.580  0.1485E+02  0.6964E+02
   7.590  0.1788E+02  0.6980E+02
   7.600  0.1710E+02  0.6998E+02
   7.610  0.1995E+02  0.7017E+02
   7.620  0.1701E+02  0.7035E+02
   7.630  0.1399E+02  0.7050E+02
   7.640  0.1452E+02  0.7068E+02
   7.650  0.2137E+02  0.7084E+02
   7.660  0.1574E+02  0.7106E+02
   7.670  0.1396E+02  0.7120E+02
   7.680  0.1283E+02  0.7133E+02
   7.690  0.1177E+02  0.7146E+02
   7.700  0.9155E+01  0.7158E+02
   7.710  0.9203E+01  0.7168E+02
   7.720  0.8543E+01  0.7177E+02
   7.730  0.8161E+01  0.7185E+02
   7.740  0.8458E+01  0.7194E+02
   7.750  0.8263E+01  0.7203E+02
   7.760  0.8148E+01  0.7211E+02
   7.770  0.7924E+01  0.7219E+02
   7.780  0.7869E+01  0.7227E+02
   7.790  0.7925E+01  0.7235E+02
   7.800  0.7987E+01  0.7243E+02
   7.810  0.8108E+01  0.7251E+02
   7.820  0.8311E+01  0.7259E+02
   7.830  0.8834E+01  0.7268E+02
   7.840  0.9124E+01  0.7277E+02
   7.850  0.9435E+01  0.7287E+02
   7.860  0.1006E+02  0.7296E+02
   7.870  0.1067E+02  0.7307E+02
   7.880  0.1179E+02  0.7319E+02
   7.890  0.1218E+02  0.7331E+02
   7.900  0.1150E+02  0.7343E+02
   7.910  0.1291E+02  0.7356E+02
   7.920  0.1206E+02  0.7369E+02
   7.930  0.1203E+02  0.7381E+02
   7.940  0.1237E+02  0.7393E+02
   7.950  0.1232E+02  0.7406E+02
   7.960  0.1147E+02  0.7418E+02
   7.970  0.1091E+02  0.7429E+02
   7.980  0.1156E+02  0.7441E+02
   7.990  0.1135E+02  0.7452E+02
   8.000  0.1162E+02  0.7464E+02
   8.010  0.1203E+02  0.7476E+02
   8.020  0.1512E+02  0.7491E+02
   8.030  0.1691E+02  0.7507E+02
   8.040  0.1395E+02  0.7523E+02
   8.050  0.1325E+02  0.7537E+02
   8.060  0.1326E+02  0.7550E+02
   8.070  0.1315E+02  0.7563E+02
   8.080  0.1294E+02  0.7576E+02
   8.090  0.1416E+02  0.7591E+02
   8.100  0.1238E+02  0.7604E+02
   8.110  0.1542E+02  0.7618E+02
   8.120  0.1482E+02  0.7634E+02
   8.130  0.1316E+02  0.7648E+02
   8.140  0.1247E+02  0.7661E+02
   8.150  0.1256E+02  0.7674E+02
   8.160  0.1267E+02  0.7686E+02
   8.170  0.1398E+02  0.7700E+02
   8.180  0.1341E+02  0.7713E+02
   8.190  0.1360E+02  0.7727E+02
   8.200  0.1363E+02  0.7741E+02
   8.210  0.1373E+02  0.7755E+02
   8.220  0.1666E+02  0.7769E+02
   8.230  0.1415E+02  0.7784E+02
   8.240  0.1432E+02  0.7799E+02
   8.250  0.1539E+02  0.7813E+02
   8.260  0.1651E+02  0.7829E+02
   8.270  0.1861E+02  0.7847E+02
   8.280  0.1916E+02  0.7866E+02
   8.290  0.2652E+02  0.7888E+02
   8.300  0.1715E+02  0.7908E+02
   8.310  0.1654E+02  0.7925E+02
   8.320  0.1787E+02  0.7943E+02
   8.330  0.1652E+02  0.7960E+02
   8.340  0.1644E+02  0.7977E+02
   8.350  0.1734E+02  0.7995E+02
   8.360  0.1603E+02  0.8012E+02
   8.370  0.1679E+02  0.8029E+02
   8.380  0.1745E+02  0.8046E+02
   8.390  0.2171E+02  0.8066E+02
   8.400  0.2174E+02  0.8090E+02
   8.410  0.1925E+02  0.8110E+02
   8.420  0.2065E+02  0.8129E+02
   8.430  0.2268E+02  0.8152E+02
   8.440  0.2713E+02  0.8176E+02
   8.450  0.2647E+02  0.8203E+02
   8.460  0.2739E+02  0.8230E+02
   8.470  0.3208E+02  0.8266E+02
   8.480  0.2286E+02  0.8292E+02
   8.490  0.2228E+02  0.8318E+02
   8.500  0.3632E+02  0.8349E+02
   8.510  0.4000E+02  0.8386E+02
   8.520  0.2578E+02  0.8417E+02
   8.530  0.2432E+02  0.8442E+02
   8.540  0.2220E+02  0.8467E+02
   8.550  0.2206E+02  0.8490E+02
   8.560  0.3595E+02  0.8522E+02
   8.570  0.3035E+02  0.8556E+02
   8.580  0.2025E+02  0.8582E+02
   8.590  0.1916E+02  0.8604E+02
   8.600  0.1914E+02  0.8623E+02
   8.610  0.1888E+02  0.8642E+02
   8.620  0.1901E+02  0.8661E+02
   8.630  0.1905E+02  0.8680E+02
   8.640  0.1904E+02  0.8700E+02
   8.650  0.1874E+02  0.8719E+02
   8.660  0.1799E+02  0.8737E+02
   8.670  0.1740E+02  0.8755E+02
   8.680  0.1739E+02  0.8772E+02
   8.690  0.1583E+02  0.8791E+02
   8.700  0.1592E+02  0.8807E+02
   8.710  0.1622E+02  0.8823E+02
   8.720  0.1617E+02  0.8839E+02
   8.730  0.1695E+02  0.8855E+02
   8.740  0.1839E+02  0.8873E+02
   8.750  0.2045E+02  0.8892E+02
   8.760  0.2117E+02  0.8914E+02
   8.770  0.2272E+02  0.8936E+02
   8.780  0.2211E+02  0.8959E+02
   8.790  0.2081E+02  0.8981E+02
   8.800  0.2015E+02  0.9001E+02
   8.810  0.1985E+02  0.9022E+02
   8.820  0.1697E+02  0.9041E+02
   8.830  0.1452E+02  0.9059E+02
   8.840  0.1316E+02  0.9073E+02
   8.850  0.1181E+02  0.9086E+02
   8.860  0.1161E+02  0.9097E+02
   8.870  0.1141E+02  0.9109E+02
   8.880  0.1135E+02  0.9120E+02
   8.890  0.1218E+02  0.9133E+02
   8.900  0.9218E+01  0.9151E+02
   8.910  0.8889E+01  0.9160E+02
   8.920  0.8100E+01  0.9169E+02
   8.930  0.7950E+01  0.9177E+02
   8.940  0.7916E+01  0.9185E+02
   8.950  0.8003E+01  0.9193E+02
   8.960  0.8238E+01  0.9201E+02
   8.970  0.9200E+01  0.9210E+02
   8.980  0.9224E+01  0.9219E+02
   8.990  0.9150E+01  0.9228E+02
   9.000  0.8329E+01  0.9238E+02
   9.010  0.8348E+01  0.9246E+02
   9.020  0.8508E+01  0.9255E+02
   9.030  0.9627E+01  0.9264E+02
   9.040  0.1137E+02  0.9273E+02
   9.050  0.1058E+02  0.9285E+02
   9.060  0.1105E+02  0.9296E+02
   9.070  0.1125E+02  0.9308E+02
   9.080  0.1303E+02  0.9319E+02
   9.090  0.1426E+02  0.9334E+02
   9.100  0.7617E+01  0.9345E+02
   9.110  0.3935E+01  0.9350E+02
   9.120  0.8319E+01  0.9355E+02
   9.130  0.7450E+01  0.9364E+02
   9.140  0.7867E+01  0.9372E+02
   9.150  0.5552E+01  0.9379E+02
   9.160  0.4822E+01  0.9384E+02
   9.170  0.4013E+01  0.9389E+02
   9.180  0.3206E+01  0.9392E+02
   9.190  0.3188E+01  0.9395E+02
   9.200  0.3171E+01  0.9398E+02
   9.210  0.3153E+01  0.9402E+02
   9.220  0.3135E+01  0.9405E+02
   9.230  0.3118E+01  0.9408E+02
   9.240  0.3100E+01  0.9411E+02
   9.250  0.3083E+01  0.9414E+02
   9.260  0.3066E+01  0.9417E+02
   9.270  0.3049E+01  0.9420E+02
   9.280  0.3003E+01  0.9423E+02
   9.290  0.2984E+01  0.9426E+02
   9.300  0.2967E+01  0.9429E+02
   9.310  0.2951E+01  0.9432E+02
   9.320  0.2937E+01  0.9435E+02
   9.330  0.2925E+01  0.9438E+02
   9.340  0.2917E+01  0.9441E+02
   9.350  0.1456E+02  0.9446E+02
   9.360  0.3323E+01  0.9466E+02
   9.370  0.3327E+01  0.9469E+02
   9.380  0.3340E+01  0.9472E+02
   9.390  0.3370E+01  0.9476E+02
   9.400  0.3348E+01  0.9479E+02
   9.410  0.3326E+01  0.9482E+02
   9.420  0.3304E+01  0.9486E+02
   9.430  0.3281E+01  0.9489E+02
   9.440  0.3259E+01  0.9492E+02
   9.450  0.3237E+01  0.9495E+02
   9.460  0.3215E+01  0.9499E+02
   9.470  0.3193E+01  0.9502E+02
   9.480  0.3233E+01  0.9506E+02
   9.490  0.3184E+01  0.9509E+02
   9.500  0.3137E+01  0.9512E+02
   9.510  0.3091E+01  0.9515E+02
   9.520  0.3047E+01  0.9518E+02
   9.530  0.3004E+01  0.9521E+02
   9.540  0.2965E+01  0.9524E+02
   9.550  0.2927E+01  0.9527E+02
   9.560  0.2892E+01  0.9530E+02
   9.570  0.2857E+01  0.9533E+02
   9.580  0.2931E+01  0.9536E+02
   9.590  0.2879E+01  0.9539E+02
   9.600  0.2480E+01  0.9542E+02
   9.610  0.2489E+01  0.9544E+02
   9.620  0.2498E+01  0.9547E+02
   9.630  0.4377E+01  0.9551E+02
   9.640  0.4484E+01  0.9556E+02
   9.650  0.4875E+01  0.9561E+02
   9.660  0.5926E+01  0.9566E+02
   9.670  0.5050E+01  0.9572E+02
   9.680  0.5180E+01  0.9577E+02
   9.690  0.5310E+01  0.9582E+02
   9.700  0.5723E+01  0.9588E+02
   9.710  0.7402E+01  0.9594E+02
   9.720  0.7990E+01  0.9602E+02
   9.730  0.8170E+01  0.9610E+02
   9.740  0.9300E+01  0.9618E+02
   9.750  0.8879E+02  0.9629E+02
   9.760  0.1044E+02  0.9644E+02
   9.770  0.7213E+01  0.9654E+02
   9.780  0.6826E+01  0.9661E+02
   9.790  0.6436E+01  0.9668E+02
   9.800  0.6070E+01  0.9674E+02
   9.810  0.6048E+01  0.9680E+02
   9.820  0.6071E+01  0.9686E+02
   9.830  0.6093E+01  0.9693E+02
   9.840  0.7210E+01  0.9700E+02
   9.850  0.7536E+01  0.9707E+02
   9.860  0.7771E+01  0.9715E+02
   9.870  0.8224E+01  0.9723E+02
   9.880  0.8690E+01  0.9731E+02
   9.890  0.1119E+02  0.9741E+02
   9.900  0.1151E+02  0.9754E+02
   9.910  0.8117E+01  0.9767E+02
   9.920  0.7972E+01  0.9775E+02
   9.930  0.7912E+01  0.9783E+02
   9.940  0.7871E+01  0.9791E+02
   9.950  0.7830E+01  0.9798E+02
   9.960  0.7789E+01  0.9806E+02
   9.970  0.7744E+01  0.9814E+02
   9.980  0.7686E+01  0.9822E+02
   9.990  0.7656E+01  0.9829E+02
  10.000  0.7626E+01  0.9837E+02
  10.010  0.7596E+01  0.9845E+02
  10.020  0.7566E+01  0.9852E+02
  10.030  0.7536E+01  0.9860E+02
  10.040  0.7575E+01  0.9867E+02
  10.050  0.7573E+01  0.9875E+02
  10.060  0.7587E+01  0.9882E+02
  10.070  0.7508E+01  0.9890E+02
  10.080  0.9229E+01  0.9899E+02
  10.090  0.8491E+01  0.9911E+02
  10.100  0.8409E+01  0.9919E+02
  10.110  0.8327E+01  0.9927E+02
  10.120  0.8245E+01  0.9936E+02
  10.130  0.8164E+01  0.9944E+02
  10.140  0.1033E+02  0.9953E+02
  10.150  0.9850E+01  0.9963E+02
  10.160  0.9366E+01  0.9973E+02
  10.170  0.1416E+02  0.9983E+02
  10.180  0.5239E+01  0.9994E+02
  10.190  0.4851E+01  0.9999E+02
  10.200  0.4587E+01  0.1000E+03
  10.210  0.4290E+01  0.1001E+03
  10.220  0.4007E+01  0.1001E+03
  10.230  0.3728E+01  0.1002E+03
  10.240  0.3444E+01  0.1002E+03
  10.250  0.2079E+01  0.1003E+03
  10.260  0.2046E+01  0.1003E+03
  10.270  0.2013E+01  0.1003E+03
  10.280  0.1980E+01  0.1003E+03
  10.290  0.1947E+01  0.1003E+03
  10.300  0.1914E+01  0.1004E+03
  10.310  0.1880E+01  0.1004E+03
  10.320  0.1847E+01  0.1004E+03
  10.330  0.1814E+01  0.1004E+03
  10.340  0.1750E+01  0.1004E+03
  10.350  0.1694E+01  0.1005E+03
  10.360  0.1649E+01  0.1005E+03
  10.370  0.1628E+01  0.1005E+03
  10.380  0.1608E+01  0.1005E+03
  10.390  0.1588E+01  0.1005E+03
  10.400  0.1499E+01  0.1005E+03
  10.410  0.1438E+01  0.1005E+03
  10.420  0.1362E+01  0.1006E+03
  10.430  0.1352E+01  0.1006E+03
  10.440  0.1342E+01  0.1006E+03
  10.450  0.1333E+01  0.1006E+03
  10.460  0.1323E+01  0.1006E+03
  10.470  0.1313E+01  0.1006E+03
  10.480  0.1304E+01  0.1006E+03
  10.490  0.1294E+01  0.1007E+03
  10.500  0.1284E+01  0.1007E+03
  10.510  0.1274E+01  0.1007E+03
  10.520  0.1265E+01  0.1007E+03
  10.530  0.1255E+01  0.1007E+03
  10.540  0.1245E+01  0.1007E+03
  10.550  0.1235E+01  0.1007E+03
  10.560  0.1226E+01  0.1007E+03
  10.570  0.1216E+01  0.1008E+03
  10.580  0.1206E+01  0.1008E+03
  10.590  0.1190E+01  0.1008E+03
  10.600  0.1170E+01  0.1008E+03
  10.610  0.1155E+01  0.1008E+03
  10.620  0.1149E+01  0.1008E+03
  10.630  0.1142E+01  0.1008E+03
  10.640  0.1135E+01  0.1008E+03
  10.650  0.1129E+01  0.1008E+03
  10.660  0.1122E+01  0.1009E+03
  10.670  0.1115E+01  0.1009E+03
  10.680  0.1109E+01  0.1009E+03
  10.690  0.1102E+01  0.1009E+03
  10.700  0.1095E+01  0.1009E+03
  10.710  0.1089E+01  0.1009E+03
  10.720  0.1082E+01  0.1009E+03
  10.730  0.1075E+01  0.1009E+03
  10.740  0.1069E+01  0.1009E+03
  10.750  0.1062E+01  0.1010E+03
  10.760  0.1055E+01  0.1010E+03
  10.770  0.1049E+01  0.1010E+03
  10.780  0.1042E+01  0.1010E+03
  10.790  0.1035E+01  0.1010E+03
  10.800  0.1029E+01  0.1010E+03
  10.810  0.1022E+01  0.1010E+03
  10.820  0.1015E+01  0.1010E+03
  10.830  0.1009E+01  0.1010E+03
  10.840  0.1002E+01  0.1010E+03
  10.850  0.9953E+00  0.1011E+03
  10.860  0.9886E+00  0.1011E+03
  10.870  0.9820E+00  0.1011E+03
  10.880  0.9753E+00  0.1011E+03
  10.890  0.9686E+00  0.1011E+03
  10.900  0.9620E+00  0.1011E+03
  10.910  0.9553E+00  0.1011E+03
  10.920  0.9486E+00  0.1011E+03
  10.930  0.9420E+00  0.1011E+03
  10.940  0.9353E+00  0.1011E+03
  10.950  0.9286E+00  0.1012E+03
  10.960  0.9220E+00  0.1012E+03
  10.970  0.9155E+00  0.1012E+03
  10.980  0.9120E+00  0.1012E+03
  10.990  0.9091E+00  0.1012E+03
  11.000  0.9062E+00  0.1012E+03
  11.010  0.9033E+00  0.1012E+03
  11.020  0.9004E+00  0.1012E+03
  11.030  0.8975E+00  0.1012E+03
  11.040  0.8945E+00  0.1012E+03
  11.050  0.8916E+00  0.1012E+03
  11.060  0.8887E+00  0.1013E+03
  11.070  0.8858E+00  0.1013E+03
  11.080  0.8829E+00  0.1013E+03
  11.090  0.8801E+00  0.1013E+03
  11.100  0.8804E+00  0.1013E+03
  11.110  0.8813E+00  0.1013E+03
  11.120  0.8821E+00  0.1013E+03
  11.130  0.8830E+00  0.1013E+03
  11.140  0.8838E+00  0.1013E+03
  11.150  0.8846E+00  0.1013E+03
  11.160  0.8855E+00  0.1013E+03
  11.170  0.8863E+00  0.1014E+03
  11.180  0.8872E+00  0.1014E+03
  11.190  0.8880E+00  0.1014E+03
  11.200  0.8889E+00  0.1014E+03
  11.210  0.8897E+00  0.1014E+03
  11.220  0.8906E+00  0.1014E+03
  11.230  0.8914E+00  0.1014E+03
  11.240  0.8922E+00  0.1014E+03
  11.250  0.8931E+00  0.1014E+03
  11.260  0.8939E+00  0.1014E+03
  11.270  0.8948E+00  0.1014E+03
  11.280  0.8956E+00  0.1014E+03
  11.290  0.8965E+00  0.1015E+03
  11.300  0.8973E+00  0.1015E+03
  11.310  0.8982E+00  0.1015E+03
  11.320  0.8990E+00  0.1015E+03
  11.330  0.9068E+00  0.1015E+03
  11.340  0.9314E+00  0.1015E+03
  11.350  0.9270E+00  0.1015E+03
  11.360  0.9227E+00  0.1015E+03
  11.370  0.9183E+00  0.1015E+03
  11.380  0.9140E+00  0.1015E+03
  11.390  0.9096E+00  0.1015E+03
  11.400  0.9052E+00  0.1016E+03
  11.410  0.9009E+00  0.1016E+03
  11.420  0.8965E+00  0.1016E+03
  11.430  0.8922E+00  0.1016E+03
  11.440  0.8878E+00  0.1016E+03
  11.450  0.9219E+00  0.1016E+03
  11.460  0.9124E+00  0.1016E+03
  11.470  0.9029E+00  0.1016E+03
  11.480  0.8934E+00  0.1016E+03
  11.490  0.8839E+00  0.1016E+03
  11.500  0.8744E+00  0.1016E+03
  11.510  0.8649E+00  0.1017E+03
  11.520  0.8554E+00  0.1017E+03
  11.530  0.8459E+00  0.1017E+03
  11.540  0.8364E+00  0.1017E+03
  11.550  0.8269E+00  0.1017E+03
  11.560  0.8174E+00  0.1017E+03
  11.570  0.8079E+00  0.1017E+03
  11.580  0.7984E+00  0.1017E+03
  11.590  0.7889E+00  0.1017E+03
  11.600  0.7794E+00  0.1017E+03
  11.610  0.7698E+00  0.1017E+03
  11.620  0.7603E+00  0.1017E+03
  11.630  0.7508E+00  0.1018E+03
  11.640  0.7413E+00  0.1018E+03
  11.650  0.7318E+00  0.1018E+03
  11.660  0.7223E+00  0.1018E+03
  11.670  0.7128E+00  0.1018E+03
  11.680  0.7033E+00  0.1018E+03
  11.690  0.6938E+00  0.1018E+03
  11.700  0.6843E+00  0.1018E+03
  11.710  0.6748E+00  0.1018E+03
  11.720  0.6653E+00  0.1018E+03
  11.730  0.6558E+00  0.1018E+03
  11.740  0.6463E+00  0.1018E+03
  11.750  0.6368E+00  0.1018E+03
  11.760  0.6273E+00  0.1018E+03
  11.770  0.6178E+00  0.1019E+03
  11.780  0.6083E+00  0.1019E+03
  11.790  0.5988E+00  0.1019E+03
  11.800  0.5893E+00  0.1019E+03
  11.810  0.5798E+00  0.1019E+03
  11.820  0.5703E+00  0.1019E+03
  11.830  0.5608E+00  0.1019E+03
  11.840  0.5513E+00  0.1019E+03
  11.850  0.5417E+00  0.1019E+03
  11.860  0.5322E+00  0.1019E+03
  11.870  0.5227E+00  0.1019E+03
  11.880  0.5132E+00  0.1019E+03
  11.890  0.5037E+00  0.1019E+03
  11.900  0.2746E+00  0.1020E+03
  11.910  0.2695E+00  0.1020E+03
  11.920  0.2644E+00  0.1020E+03
  11.930  0.2593E+00  0.1020E+03
  11.940  0.2542E+00  0.1020E+03
  11.950  0.2491E+00  0.1020E+03
  11.960  0.2440E+00  0.1020E+03
  11.970  0.0000E+00  0.1020E+03
  11.980  0.0000E+00  0.1020E+03
  11.990  0.0000E+00  0.1020E+03
  12.000  0.0000E+00  0.1020E+03
  12.010  0.0000E+00  0.1020E+03
  12.020  0.0000E+00  0.1020E+03
  12.030  0.0000E+00  0.1020E+03
  12.040  0.0000E+00  0.1020E+03
  12.050  0.0000E+00  0.1020E+03
  12.060  0.0000E+00  0.1020E+03
  12.070  0.0000E+00  0.1020E+03
  12.080  0.0000E+00  0.1020E+03
  12.090  0.0000E+00  0.1020E+03
  12.100  0.0000E+00  0.1020E+03
  12.110  0.1164E+01  0.1020E+03
  12.120  0.9802E+00  0.1020E+03
  12.130  0.1074E+01  0.1020E+03
  12.140  0.1171E+01  0.1021E+03
  12.150  0.1538E+01  0.1021E+03
  12.160  0.8639E+00  0.1021E+03
  12.170  0.8874E+00  0.1021E+03
  12.180  0.9108E+00  0.1021E+03
  12.190  0.9343E+00  0.1021E+03
  12.200  0.9578E+00  0.1021E+03
  12.210  0.9812E+00  0.1021E+03
  12.220  0.1005E+01  0.1021E+03
  12.230  0.1028E+01  0.1022E+03
  12.240  0.1052E+01  0.1022E+03
  12.250  0.1075E+01  0.1022E+03
  12.260  0.1099E+01  0.1022E+03
  12.270  0.1122E+01  0.1022E+03
  12.280  0.1145E+01  0.1022E+03
  12.290  0.1169E+01  0.1022E+03
  12.300  0.1192E+01  0.1022E+03
  12.310  0.1216E+01  0.1022E+03
  12.320  0.1239E+01  0.1023E+03
  12.330  0.1263E+01  0.1023E+03
  12.340  0.1271E+01  0.1023E+03
  12.350  0.1268E+01  0.1023E+03
  12.360  0.1267E+01  0.1023E+03
  12.370  0.1267E+01  0.1023E+03
  12.380  0.1250E+01  0.1023E+03
  12.390  0.1233E+01  0.1023E+03
  12.400  0.1258E+01  0.1024E+03
  12.410  0.1283E+01  0.1024E+03
  12.420  0.1308E+01  0.1024E+03
  12.430  0.1333E+01  0.1024E+03
  12.440  0.1358E+01  0.1024E+03
  12.450  0.1383E+01  0.1024E+03
  12.460  0.1608E+01  0.1024E+03
  12.470  0.1647E+01  0.1025E+03
  12.480  0.1686E+01  0.1025E+03
  12.490  0.1725E+01  0.1025E+03
  12.500  0.1765E+01  0.1025E+03
  12.510  0.1740E+01  0.1025E+03
  12.520  0.1776E+01  0.1025E+03
  12.530  0.1813E+01  0.1026E+03
  12.540  0.1849E+01  0.1026E+03
  12.550  0.1886E+01  0.1026E+03
  12.560  0.1923E+01  0.1026E+03
  12.570  0.1960E+01  0.1026E+03
  12.580  0.2021E+01  0.1027E+03
  12.590  0.2062E+01  0.1027E+03
  12.600  0.2114E+01  0.1027E+03
  12.610  0.2166E+01  0.1027E+03
  12.620  0.2215E+01  0.1027E+03
  12.630  0.2265E+01  0.1028E+03
  12.640  0.2216E+01  0.1028E+03
  12.650  0.3408E+01  0.1028E+03
  12.660  0.3461E+01  0.1029E+03
  12.670  0.3521E+01  0.1029E+03
  12.680  0.3593E+01  0.1029E+03
  12.690  0.3645E+01  0.1030E+03
  12.700  0.3658E+01  0.1030E+03
  12.710  0.3654E+01  0.1031E+03
  12.720  0.3570E+01  0.1031E+03
  12.730  0.3520E+01  0.1031E+03
  12.740  0.4712E+01  0.1032E+03
  12.750  0.3655E+01  0.1032E+03
  12.760  0.3731E+01  0.1032E+03
  12.770  0.3715E+01  0.1033E+03
  12.780  0.3700E+01  0.1033E+03
  12.790  0.3710E+01  0.1034E+03
  12.800  0.3742E+01  0.1034E+03
  12.810  0.3513E+01  0.1034E+03
  12.820  0.3303E+01  0.1035E+03
  12.830  0.3112E+01  0.1035E+03
  12.840  0.2956E+01  0.1035E+03
  12.850  0.2826E+01  0.1036E+03
  12.860  0.2710E+01  0.1036E+03
  12.870  0.2602E+01  0.1036E+03
  12.880  0.2504E+01  0.1036E+03
  12.890  0.2415E+01  0.1037E+03
  12.900  0.2336E+01  0.1037E+03
  12.910  0.2263E+01  0.1037E+03
  12.920  0.2193E+01  0.1037E+03
  12.930  0.2127E+01  0.1037E+03
  12.940  0.2066E+01  0.1038E+03
  12.950  0.2010E+01  0.1038E+03
  12.960  0.1829E+01  0.1038E+03
  12.970  0.1813E+01  0.1038E+03
  12.980  0.1797E+01  0.1038E+03
  12.990  0.1781E+01  0.1039E+03
  13.000  0.1873E+01  0.1039E+03
  13.010  0.1822E+01  0.1039E+03
  13.020  0.1721E+01  0.1039E+03
  13.030  0.1525E+01  0.1039E+03
  13.040  0.1261E+01  0.1039E+03
  13.050  0.1104E+01  0.1040E+03
  13.060  0.1307E+01  0.1040E+03
  13.070  0.1274E+01  0.1040E+03
  13.080  0.1288E+01  0.1040E+03
  13.090  0.1339E+01  0.1040E+03
  13.100  0.1312E+01  0.1040E+03
  13.110  0.1780E+01  0.1040E+03
  13.120  0.2237E+01  0.1041E+03
  13.130  0.2707E+01  0.1041E+03
  13.140  0.3470E+01  0.1041E+03
  13.150  0.4126E+01  0.1042E+03
  13.160  0.4157E+01  0.1042E+03
  13.170  0.3150E+01  0.1043E+03
  13.180  0.2973E+01  0.1043E+03
  13.190  0.2800E+01  0.1043E+03
  13.200  0.2681E+01  0.1043E+03
  13.210  0.2669E+01  0.1044E+03
  13.220  0.2657E+01  0.1044E+03
  13.230  0.2646E+01  0.1044E+03
  13.240  0.4424E+01  0.1045E+03
  13.250  0.3936E+01  0.1045E+03
  13.260  0.3022E+01  0.1045E+03
  13.270  0.2860E+01  0.1046E+03
  13.280  0.1979E+01  0.1046E+03
  13.290  0.1953E+01  0.1046E+03
  13.300  0.1869E+01  0.1046E+03
  13.310  0.1860E+01  0.1047E+03
  13.320  0.1850E+01  0.1047E+03
  13.330  0.2341E+01  0.1047E+03
  13.340  0.2362E+01  0.1047E+03
  13.350  0.2169E+01  0.1047E+03
  13.360  0.2178E+01  0.1048E+03
  13.370  0.2186E+01  0.1048E+03
  13.380  0.2184E+01  0.1048E+03
  13.390  0.2192E+01  0.1048E+03
  13.400  0.2202E+01  0.1049E+03
  13.410  0.1992E+01  0.1049E+03
  13.420  0.2007E+01  0.1049E+03
  13.430  0.2033E+01  0.1049E+03
  13.440  0.2064E+01  0.1049E+03
  13.450  0.2095E+01  0.1050E+03
  13.460  0.2126E+01  0.1050E+03
  13.470  0.2157E+01  0.1050E+03
  13.480  0.2188E+01  0.1050E+03
  13.490  0.2219E+01  0.1051E+03
  13.500  0.2251E+01  0.1051E+03
  13.510  0.2282E+01  0.1051E+03
  13.520  0.2313E+01  0.1051E+03
  13.530  0.2580E+01  0.1051E+03
  13.540  0.2626E+01  0.1052E+03
  13.550  0.2672E+01  0.1052E+03
  13.560  0.2704E+01  0.1052E+03
  13.570  0.2740E+01  0.1053E+03
  13.580  0.2783E+01  0.1053E+03
  13.590  0.2827E+01  0.1053E+03
  13.600  0.2869E+01  0.1053E+03
  13.610  0.3050E+01  0.1054E+03
  13.620  0.3100E+01  0.1054E+03
  13.630  0.2836E+01  0.1054E+03
  13.640  0.2898E+01  0.1055E+03
  13.650  0.2940E+01  0.1055E+03
  13.660  0.2984E+01  0.1055E+03
  13.670  0.3030E+01  0.1055E+03
  13.680  0.3078E+01  0.1056E+03
  13.690  0.3128E+01  0.1056E+03
  13.700  0.3182E+01  0.1056E+03
  13.710  0.3292E+01  0.1057E+03
  13.720  0.3534E+01  0.1057E+03
  13.730  0.4002E+01  0.1057E+03
  13.740  0.3351E+01  0.1058E+03
  13.750  0.3424E+01  0.1058E+03
  13.760  0.3524E+01  0.1059E+03
  13.770  0.3633E+01  0.1059E+03
  13.780  0.3738E+01  0.1059E+03
  13.790  0.3785E+01  0.1060E+03
  13.800  0.3795E+01  0.1060E+03
  13.810  0.3799E+01  0.1060E+03
  13.820  0.3796E+01  0.1061E+03
  13.830  0.3787E+01  0.1061E+03
  13.840  0.3770E+01  0.1062E+03
  13.850  0.3747E+01  0.1062E+03
  13.860  0.3717E+01  0.1062E+03
  13.870  0.3681E+01  0.1063E+03
  13.880  0.3638E+01  0.1063E+03
  13.890  0.3485E+01  0.1063E+03
  13.900  0.3333E+01  0.1064E+03
  13.910  0.3249E+01  0.1064E+03
  13.920  0.3179E+01  0.1064E+03
  13.930  0.3122E+01  0.1065E+03
  13.940  0.3069E+01  0.1065E+03
  13.950  0.2954E+01  0.1065E+03
  13.960  0.2892E+01  0.1066E+03
  13.970  0.2930E+01  0.1066E+03
  13.980  0.2962E+01  0.1066E+03
  13.990  0.2996E+01  0.1066E+03
  14.000  0.3036E+01  0.1067E+03
  14.010  0.3079E+01  0.1067E+03
  14.020  0.3126E+01  0.1067E+03
  14.030  0.3175E+01  0.1068E+03
  14.040  0.3228E+01  0.1068E+03
  14.050  0.3303E+01  0.1068E+03
  14.060  0.3342E+01  0.1069E+03
  14.070  0.3359E+01  0.1069E+03
  14.080  0.3373E+01  0.1069E+03
  14.090  0.3382E+01  0.1070E+03
  14.100  0.3388E+01  0.1070E+03
  14.110  0.3396E+01  0.1070E+03
  14.120  0.3400E+01  0.1071E+03
  14.130  0.3415E+01  0.1071E+03
  14.140  0.3423E+01  0.1071E+03
  14.150  0.3431E+01  0.1072E+03
  14.160  0.3439E+01  0.1072E+03
  14.170  0.3448E+01  0.1072E+03
  14.180  0.3553E+01  0.1073E+03
  14.190  0.3650E+01  0.1073E+03
  14.200  0.3613E+01  0.1074E+03
  14.210  0.3585E+01  0.1074E+03
  14.220  0.3568E+01  0.1074E+03
  14.230  0.3557E+01  0.1075E+03
  14.240  0.3470E+01  0.1075E+03
  14.250  0.3498E+01  0.1075E+03
  14.260  0.3500E+01  0.1076E+03
  14.270  0.3512E+01  0.1076E+03
  14.280  0.3886E+01  0.1076E+03
  14.290  0.4001E+01  0.1077E+03
  14.300  0.4124E+01  0.1077E+03
  14.310  0.4325E+01  0.1078E+03
  14.320  0.4415E+01  0.1078E+03
  14.330  0.4550E+01  0.1079E+03
  14.340  0.4696E+01  0.1079E+03
  14.350  0.4967E+01  0.1080E+03
  14.360  0.5156E+01  0.1080E+03
  14.370  0.5220E+01  0.1081E+03
  14.380  0.4978E+01  0.1081E+03
  14.390  0.5062E+01  0.1082E+03
  14.400  0.5147E+01  0.1082E+03
  14.410  0.5239E+01  0.1083E+03
  14.420  0.5329E+01  0.1083E+03
  14.430  0.6114E+01  0.1084E+03
  14.440  0.6227E+01  0.1084E+03
  14.450  0.6315E+01  0.1085E+03
  14.460  0.6196E+01  0.1086E+03
  14.470  0.6270E+01  0.1086E+03
  14.480  0.6315E+01  0.1087E+03
  14.490  0.6285E+01  0.1088E+03
  14.500  0.5813E+01  0.1088E+03
  14.510  0.5754E+01  0.1089E+03
  14.520  0.5402E+01  0.1089E+03
  14.530  0.5153E+01  0.1090E+03
  14.540  0.5073E+01  0.1090E+03
  14.550  0.5487E+01  0.1091E+03
  14.560  0.5569E+01  0.1092E+03
  14.570  0.4442E+01  0.1092E+03
  14.580  0.4552E+01  0.1093E+03
  14.590  0.4467E+01  0.1093E+03
  14.600  0.4548E+01  0.1094E+03
  14.610  0.4626E+01  0.1094E+03
  14.620  0.4702E+01  0.1094E+03
  14.630  0.4997E+01  0.1095E+03
  14.640  0.5482E+01  0.1096E+03
  14.650  0.5510E+01  0.1096E+03
  14.660  0.5580E+01  0.1097E+03
  14.670  0.5708E+01  0.1097E+03
  14.680  0.5954E+01  0.1098E+03
  14.690  0.6123E+01  0.1098E+03
  14.700  0.6466E+01  0.1099E+03
  14.710  0.6504E+01  0.1100E+03
  14.720  0.6968E+01  0.1100E+03
  14.730  0.1112E+02  0.1101E+03
  14.740  0.5689E+01  0.1102E+03
  14.750  0.2538E+01  0.1102E+03
  14.760  0.2228E+01  0.1103E+03
  14.770  0.1961E+01  0.1103E+03
  14.780  0.1837E+01  0.1103E+03
  14.790  0.1719E+01  0.1103E+03
  14.800  0.1885E+01  0.1103E+03
  14.810  0.1834E+01  0.1104E+03
  14.820  0.1770E+01  0.1104E+03
  14.830  0.1669E+01  0.1104E+03
  14.840  0.1576E+01  0.1104E+03
  14.850  0.1418E+01  0.1104E+03
  14.860  0.1478E+01  0.1104E+03
  14.870  0.1540E+01  0.1105E+03
  14.880  0.1602E+01  0.1105E+03
  14.890  0.1665E+01  0.1105E+03
  14.900  0.1826E+01  0.1105E+03
  14.910  0.2571E+01  0.1105E+03
  14.920  0.3054E+01  0.1106E+03
  14.930  0.3857E+01  0.1106E+03
  14.940  0.4910E+01  0.1106E+03
  14.950  0.4996E+01  0.1107E+03
  14.960  0.5086E+01  0.1107E+03
  14.970  0.5153E+01  0.1108E+03
  14.980  0.5176E+01  0.1108E+03
  14.990  0.3325E+01  0.1109E+03
  15.000  0.3241E+01  0.1109E+03
  15.010  0.3163E+01  0.1110E+03
  15.020  0.3091E+01  0.1110E+03
  15.030  0.3025E+01  0.1110E+03
  15.040  0.3061E+01  0.1111E+03
  15.050  0.3096E+01  0.1111E+03
  15.060  0.3137E+01  0.1111E+03
  15.070  0.3076E+01  0.1112E+03
  15.080  0.3135E+01  0.1112E+03
  15.090  0.3197E+01  0.1112E+03
  15.100  0.3262E+01  0.1113E+03
  15.110  0.3328E+01  0.1113E+03
  15.120  0.3396E+01  0.1113E+03
  15.130  0.3466E+01  0.1114E+03
  15.140  0.3557E+01  0.1114E+03
  15.150  0.3684E+01  0.1114E+03
  15.160  0.3901E+01  0.1115E+03
  15.170  0.4233E+01  0.1115E+03
  15.180  0.4198E+01  0.1115E+03
  15.190  0.4397E+01  0.1116E+03
  15.200  0.4577E+01  0.1116E+03
  15.210  0.4546E+01  0.1117E+03
  15.220  0.4579E+01  0.1117E+03
  15.230  0.4618E+01  0.1118E+03
  15.240  0.4646E+01  0.1118E+03
  15.250  0.4667E+01  0.1119E+03
  15.260  0.6777E+01  0.1119E+03
  15.270  0.3951E+01  0.1120E+03
  15.280  0.3995E+01  0.1120E+03
  15.290  0.4099E+01  0.1121E+03
  15.300  0.4197E+01  0.1121E+03
  15.310  0.4301E+01  0.1121E+03
  15.320  0.4432E+01  0.1122E+03
  15.330  0.4556E+01  0.1122E+03
  15.340  0.4670E+01  0.1123E+03
  15.350  0.4777E+01  0.1123E+03
  15.360  0.4875E+01  0.1124E+03
  15.370  0.4967E+01  0.1124E+03
  15.380  0.5051E+01  0.1125E+03
  15.390  0.5315E+01  0.1125E+03
  15.400  0.5302E+01  0.1126E+03
  15.410  0.5290E+01  0.1126E+03
  15.420  0.5279E+01  0.1127E+03
  15.430  0.5270E+01  0.1127E+03
  15.440  0.5262E+01  0.1128E+03
  15.450  0.5255E+01  0.1128E+03
  15.460  0.5250E+01  0.1129E+03
  15.470  0.5663E+01  0.1129E+03
  15.480  0.5395E+01  0.1130E+03
  15.490  0.4458E+01  0.1131E+03
  15.500  0.4470E+01  0.1131E+03
  15.510  0.4591E+01  0.1131E+03
  15.520  0.4742E+01  0.1132E+03
  15.530  0.4912E+01  0.1132E+03
  15.540  0.5099E+01  0.1133E+03
  15.550  0.5988E+01  0.1133E+03
  15.560  0.6319E+01  0.1134E+03
  15.570  0.6447E+01  0.1135E+03
  15.580  0.6497E+01  0.1135E+03
  15.590  0.5453E+01  0.1136E+03
  15.600  0.5519E+01  0.1137E+03
  15.610  0.5594E+01  0.1137E+03
  15.620  0.5679E+01  0.1138E+03
  15.630  0.5773E+01  0.1138E+03
  15.640  0.1362E+02  0.1139E+03
  15.650  0.1162E+02  0.1141E+03
  15.660  0.7022E+01  0.1141E+03
  15.670  0.6641E+01  0.1142E+03
  15.680  0.5660E+01  0.1143E+03
  15.690  0.7767E+01  0.1143E+03
  15.700  0.8728E+01  0.1144E+03
  15.710  0.8578E+01  0.1145E+03
  15.720  0.9140E+01  0.1146E+03
  15.730  0.8924E+01  0.1147E+03
  15.740  0.9135E+01  0.1148E+03
  15.750  0.7589E+01  0.1149E+03
  15.760  0.8512E+01  0.1150E+03
  15.770  0.9308E+01  0.1151E+03
  15.780  0.1018E+02  0.1152E+03
  15.790  0.1132E+02  0.1153E+03
  15.800  0.1635E+02  0.1154E+03
  15.810  0.9736E+01  0.1155E+03
  15.820  0.8817E+01  0.1156E+03
  15.830  0.8458E+01  0.1157E+03
  15.840  0.8268E+01  0.1158E+03
  15.850  0.8086E+01  0.1159E+03
  15.860  0.9009E+01  0.1160E+03
  15.870  0.7764E+01  0.1161E+03
  15.880  0.7540E+01  0.1161E+03
  15.890  0.7464E+01  0.1162E+03
  15.900  0.7442E+01  0.1163E+03
  15.910  0.7603E+01  0.1164E+03
  15.920  0.8223E+01  0.1165E+03
  15.930  0.9398E+01  0.1165E+03
  15.940  0.1121E+02  0.1166E+03
  15.950  0.1076E+02  0.1168E+03
  15.960  0.8048E+01  0.1169E+03
  15.970  0.7775E+01  0.1169E+03
  15.980  0.7425E+01  0.1170E+03
  15.990  0.6797E+01  0.1171E+03
  16.000  0.6123E+01  0.1171E+03
  16.010  0.5909E+01  0.1172E+03
  16.020  0.5693E+01  0.1173E+03
  16.030  0.5577E+01  0.1173E+03
  16.040  0.5501E+01  0.1174E+03
  16.050  0.5430E+01  0.1174E+03
  16.060  0.5361E+01  0.1175E+03
  16.070  0.5293E+01  0.1175E+03
  16.080  0.5226E+01  0.1176E+03
  16.090  0.5159E+01  0.1176E+03
  16.100  0.5173E+01  0.1177E+03
  16.110  0.5286E+01  0.1177E+03
  16.120  0.5223E+01  0.1178E+03
  16.130  0.5244E+01  0.1179E+03
  16.140  0.5176E+01  0.1179E+03
  16.150  0.5279E+01  0.1180E+03
  16.160  0.5276E+01  0.1180E+03
  16.170  0.5276E+01  0.1181E+03
  16.180  0.5155E+01  0.1181E+03
  16.190  0.5108E+01  0.1182E+03
  16.200  0.5063E+01  0.1182E+03
  16.210  0.5019E+01  0.1183E+03
  16.220  0.4978E+01  0.1183E+03
  16.230  0.4951E+01  0.1184E+03
  16.240  0.5166E+01  0.1184E+03
  16.250  0.5172E+01  0.1185E+03
  16.260  0.5016E+01  0.1185E+03
  16.270  0.4808E+01  0.1186E+03
  16.280  0.4646E+01  0.1186E+03
  16.290  0.4437E+01  0.1187E+03
  16.300  0.4401E+01  0.1187E+03
  16.310  0.4295E+01  0.1187E+03
  16.320  0.4191E+01  0.1188E+03
  16.330  0.4092E+01  0.1188E+03
  16.340  0.1299E+02  0.1189E+03
  16.350  0.6839E+01  0.1190E+03
  16.360  0.7263E+01  0.1190E+03
  16.370  0.5634E+01  0.1191E+03
  16.380  0.5322E+01  0.1192E+03
  16.390  0.5015E+01  0.1192E+03
  16.400  0.5032E+01  0.1193E+03
  16.410  0.4767E+01  0.1193E+03
  16.420  0.4435E+01  0.1194E+03
  16.430  0.4144E+01  0.1194E+03
  16.440  0.3677E+01  0.1195E+03
  16.450  0.3545E+01  0.1195E+03
  16.460  0.3407E+01  0.1195E+03
  16.470  0.3196E+01  0.1196E+03
  16.480  0.3028E+01  0.1196E+03
  16.490  0.2571E+01  0.1196E+03
  16.500  0.2441E+01  0.1196E+03
  16.510  0.2324E+01  0.1197E+03
  16.520  0.2218E+01  0.1197E+03
  16.530  0.2158E+01  0.1197E+03
  16.540  0.2549E+01  0.1197E+03
  16.550  0.2220E+01  0.1198E+03
  16.560  0.1910E+01  0.1198E+03
  16.570  0.1841E+01  0.1198E+03
  16.580  0.1779E+01  0.1198E+03
  16.590  0.1723E+01  0.1198E+03
  16.600  0.1674E+01  0.1199E+03
  16.610  0.1627E+01  0.1199E+03
  16.620  0.1578E+01  0.1199E+03
  16.630  0.1526E+01  0.1199E+03
  16.640  0.1471E+01  0.1199E+03
  16.650  0.1412E+01  0.1199E+03
  16.660  0.1351E+01  0.1199E+03
  16.670  0.1287E+01  0.1200E+03
  16.680  0.1220E+01  0.1200E+03
  16.690  0.7696E+00  0.1200E+03
  16.700  0.5307E+00  0.1200E+03
  16.710  0.3331E+00  0.1200E+03
  16.720  0.1768E+00  0.1200E+03
  16.730  0.6191E-01  0.1200E+03
  16.740  0.0000E+00  0.1200E+03
  16.750  0.0000E+00  0.1200E+03
  16.760  0.0000E+00  0.1200E+03
  16.770  0.0000E+00  0.1200E+03
  16.780  0.0000E+00  0.1200E+03
  16.790  0.0000E+00  0.1200E+03
  16.800  0.0000E+00  0.1200E+03
  16.810  0.0000E+00  0.1200E+03
  16.820  0.0000E+00  0.1200E+03
  16.830  0.0000E+00  0.1200E+03
  16.840  0.0000E+00  0.1200E+03
  16.850  0.0000E+00  0.1200E+03
  16.860  0.0000E+00  0.1200E+03
  16.870  0.0000E+00  0.1200E+03
  16.880  0.0000E+00  0.1200E+03
  16.890  0.0000E+00  0.1200E+03
  16.900  0.0000E+00  0.1200E+03
  16.910  0.0000E+00  0.1200E+03
  16.920  0.0000E+00  0.1200E+03
  16.930  0.0000E+00  0.1200E+03
  16.940  0.0000E+00  0.1200E+03
  16.950  0.0000E+00  0.1200E+03
  16.960  0.0000E+00  0.1200E+03
  16.970  0.0000E+00  0.1200E+03
  16.980  0.0000E+00  0.1200E+03
  16.990  0.0000E+00  0.1200E+03
  17.000  0.0000E+00  0.1200E+03
  17.010  0.0000E+00  0.1200E+03
  17.020  0.0000E+00  0.1200E+03
  17.030  0.0000E+00  0.1200E+03
  17.040  0.0000E+00  0.1200E+03
  17.050  0.0000E+00  0.1200E+03
  17.060  0.0000E+00  0.1200E+03
  17.070  0.0000E+00  0.1200E+03
  17.080  0.0000E+00  0.1200E+03
  17.090  0.0000E+00  0.1200E+03
  17.100  0.0000E+00  0.1200E+03
  17.110  0.0000E+00  0.1200E+03
  17.120  0.0000E+00  0.1200E+03
  17.130  0.0000E+00  0.1200E+03
  17.140  0.0000E+00  0.1200E+03
  17.150  0.0000E+00  0.1200E+03
  17.160  0.0000E+00  0.1200E+03
  17.170  0.0000E+00  0.1200E+03
  17.180  0.0000E+00  0.1200E+03
  17.190  0.0000E+00  0.1200E+03
  17.200  0.0000E+00  0.1200E+03
  17.210  0.0000E+00  0.1200E+03
  17.220  0.0000E+00  0.1200E+03
  17.230  0.0000E+00  0.1200E+03
  17.240  0.0000E+00  0.1200E+03
  17.250  0.0000E+00  0.1200E+03
  17.260  0.0000E+00  0.1200E+03
  17.270  0.0000E+00  0.1200E+03
  17.280  0.0000E+00  0.1200E+03
  17.290  0.0000E+00  0.1200E+03
  17.300  0.0000E+00  0.1200E+03
  17.310  0.0000E+00  0.1200E+03
  17.320  0.0000E+00  0.1200E+03
  17.330  0.0000E+00  0.1200E+03
  17.340  0.0000E+00  0.1200E+03
  17.350  0.0000E+00  0.1200E+03
  17.360  0.0000E+00  0.1200E+03
  17.370  0.0000E+00  0.1200E+03
  17.380  0.0000E+00  0.1200E+03
  17.390  0.0000E+00  0.1200E+03
  17.400  0.0000E+00  0.1200E+03
  17.410  0.0000E+00  0.1200E+03
  17.420  0.0000E+00  0.1200E+03
  17.430  0.0000E+00  0.1200E+03
  17.440  0.0000E+00  0.1200E+03
  17.450  0.0000E+00  0.1200E+03
  17.460  0.0000E+00  0.1200E+03
  17.470  0.0000E+00  0.1200E+03
  17.480  0.0000E+00  0.1200E+03
  17.490  0.0000E+00  0.1200E+03
  17.500  0.0000E+00  0.1200E+03
  17.510  0.0000E+00  0.1200E+03
  17.520  0.0000E+00  0.1200E+03
  17.530  0.0000E+00  0.1200E+03
  17.540  0.0000E+00  0.1200E+03
  17.550  0.0000E+00  0.1200E+03
  17.560  0.0000E+00  0.1200E+03
  17.570  0.0000E+00  0.1200E+03
  17.580  0.0000E+00  0.1200E+03
  17.590  0.0000E+00  0.1200E+03
  17.600  0.0000E+00  0.1200E+03
  17.610  0.0000E+00  0.1200E+03
  17.620  0.0000E+00  0.1200E+03
  17.630  0.0000E+00  0.1200E+03
  17.640  0.0000E+00  0.1200E+03
  17.650  0.0000E+00  0.1200E+03
  17.660  0.0000E+00  0.1200E+03
  17.670  0.0000E+00  0.1200E+03
  17.680  0.0000E+00  0.1200E+03
  17.690  0.0000E+00  0.1200E+03
  17.700  0.0000E+00  0.1200E+03
  17.710  0.0000E+00  0.1200E+03
  17.720  0.0000E+00  0.1200E+03
  17.730  0.0000E+00  0.1200E+03
  17.740  0.0000E+00  0.1200E+03
  17.750  0.0000E+00  0.1200E+03
  17.760  0.0000E+00  0.1200E+03
  17.770  0.0000E+00  0.1200E+03
  17.780  0.0000E+00  0.1200E+03
  17.790  0.0000E+00  0.1200E+03
  17.800  0.0000E+00  0.1200E+03
  17.810  0.0000E+00  0.1200E+03
  17.820  0.0000E+00  0.1200E+03
  17.830  0.0000E+00  0.1200E+03
  17.840  0.0000E+00  0.1200E+03
  17.850  0.0000E+00  0.1200E+03
  17.860  0.0000E+00  0.1200E+03
  17.870  0.0000E+00  0.1200E+03
  17.880  0.0000E+00  0.1200E+03
  17.890  0.0000E+00  0.1200E+03
  17.900  0.0000E+00  0.1200E+03
  17.910  0.0000E+00  0.1200E+03
  17.920  0.0000E+00  0.1200E+03
  17.930  0.0000E+00  0.1200E+03
  17.940  0.0000E+00  0.1200E+03
  17.950  0.0000E+00  0.1200E+03
  17.960  0.0000E+00  0.1200E+03
  17.970  0.0000E+00  0.1200E+03
  17.980  0.0000E+00  0.1200E+03
  17.990  0.0000E+00  0.1200E+03
  18.000  0.0000E+00  0.1200E+03
  18.010  0.0000E+00  0.1200E+03
  18.020  0.0000E+00  0.1200E+03
  18.030  0.0000E+00  0.1200E+03
  18.040  0.0000E+00  0.1200E+03
  18.050  0.0000E+00  0.1200E+03
  18.060  0.0000E+00  0.1200E+03
  18.070  0.0000E+00  0.1200E+03
  18.080  0.0000E+00  0.1200E+03
  18.090  0.0000E+00  0.1200E+03
  18.100  0.0000E+00  0.1200E+03
  18.110  0.0000E+00  0.1200E+03
  18.120  0.0000E+00  0.1200E+03
  18.130  0.0000E+00  0.1200E+03
  18.140  0.0000E+00  0.1200E+03
  18.150  0.0000E+00  0.1200E+03
  18.160  0.0000E+00  0.1200E+03
  18.170  0.0000E+00  0.1200E+03
  18.180  0.0000E+00  0.1200E+03
  18.190  0.0000E+00  0.1200E+03
  18.200  0.0000E+00  0.1200E+03
  18.210  0.0000E+00  0.1200E+03
  18.220  0.0000E+00  0.1200E+03
  18.230  0.0000E+00  0.1200E+03
  18.240  0.0000E+00  0.1200E+03
  18.250  0.0000E+00  0.1200E+03
  18.260  0.0000E+00  0.1200E+03
  18.270  0.0000E+00  0.1200E+03
  18.280  0.0000E+00  0.1200E+03
  18.290  0.0000E+00  0.1200E+03
  18.300  0.0000E+00  0.1200E+03
  18.310  0.0000E+00  0.1200E+03
  18.320  0.0000E+00  0.1200E+03
  18.330  0.0000E+00  0.1200E+03
  18.340  0.0000E+00  0.1200E+03
  18.350  0.0000E+00  0.1200E+03
  18.360  0.0000E+00  0.1200E+03
  18.370  0.0000E+00  0.1200E+03
  18.380  0.0000E+00  0.1200E+03
  18.390  0.0000E+00  0.1200E+03
  18.400  0.0000E+00  0.1200E+03
  18.410  0.0000E+00  0.1200E+03
  18.420  0.0000E+00  0.1200E+03
  18.430  0.0000E+00  0.1200E+03
  18.440  0.0000E+00  0.1200E+03
  18.450  0.0000E+00  0.1200E+03
  18.460  0.0000E+00  0.1200E+03
  18.470  0.0000E+00  0.1200E+03
  18.480  0.0000E+00  0.1200E+03
  18.490  0.0000E+00  0.1200E+03
  18.500  0.0000E+00  0.1200E+03
  18.510  0.0000E+00  0.1200E+03
  18.520  0.0000E+00  0.1200E+03
  18.530  0.0000E+00  0.1200E+03
  18.540  0.0000E+00  0.1200E+03
  18.550  0.0000E+00  0.1200E+03
  18.560  0.0000E+00  0.1200E+03
  18.570  0.0000E+00  0.1200E+03
  18.580  0.0000E+00  0.1200E+03
  18.590  0.0000E+00  0.1200E+03
  18.600  0.0000E+00  0.1200E+03
  18.610  0.0000E+00  0.1200E+03
  18.620  0.0000E+00  0.1200E+03
  18.630  0.0000E+00  0.1200E+03
  18.640  0.0000E+00  0.1200E+03
  18.650  0.0000E+00  0.1200E+03
  18.660  0.0000E+00  0.1200E+03
  18.670  0.0000E+00  0.1200E+03
  18.680  0.0000E+00  0.1200E+03
  18.690  0.0000E+00  0.1200E+03
  18.700  0.0000E+00  0.1200E+03
  18.710  0.0000E+00  0.1200E+03
  18.720  0.0000E+00  0.1200E+03
  18.730  0.0000E+00  0.1200E+03
  18.740  0.0000E+00  0.1200E+03
  18.750  0.0000E+00  0.1200E+03
  18.760  0.0000E+00  0.1200E+03
  18.770  0.0000E+00  0.1200E+03
  18.780  0.0000E+00  0.1200E+03
  18.790  0.0000E+00  0.1200E+03
  18.800  0.0000E+00  0.1200E+03
  18.810  0.0000E+00  0.1200E+03
  18.820  0.0000E+00  0.1200E+03
  18.830  0.0000E+00  0.1200E+03
  18.840  0.0000E+00  0.1200E+03
  18.850  0.0000E+00  0.1200E+03
  18.860  0.0000E+00  0.1200E+03
  18.870  0.0000E+00  0.1200E+03
  18.880  0.0000E+00  0.1200E+03
  18.890  0.0000E+00  0.1200E+03
  18.900  0.0000E+00  0.1200E+03
  18.910  0.0000E+00  0.1200E+03
  18.920  0.0000E+00  0.1200E+03
  18.930  0.0000E+00  0.1200E+03
  18.940  0.0000E+00  0.1200E+03
  18.950  0.0000E+00  0.1200E+03
  18.960  0.0000E+00  0.1200E+03
  18.970  0.0000E+00  0.1200E+03
  18.980  0.0000E+00  0.1200E+03
  18.990  0.0000E+00  0.1200E+03
  19.000  0.0000E+00  0.1200E+03
  19.010  0.0000E+00  0.1200E+03
  19.020  0.0000E+00  0.1200E+03
  19.030  0.0000E+00  0.1200E+03
  19.040  0.0000E+00  0.1200E+03
  19.050  0.0000E+00  0.1200E+03
  19.060  0.0000E+00  0.1200E+03
  19.070  0.0000E+00  0.1200E+03
  19.080  0.0000E+00  0.1200E+03
  19.090  0.0000E+00  0.1200E+03
  19.100  0.0000E+00  0.1200E+03
  19.110  0.0000E+00  0.1200E+03
  19.120  0.0000E+00  0.1200E+03
  19.130  0.0000E+00  0.1200E+03
  19.140  0.0000E+00  0.1200E+03
  19.150  0.0000E+00  0.1200E+03
  19.160  0.0000E+00  0.1200E+03
  19.170  0.0000E+00  0.1200E+03
  19.180  0.0000E+00  0.1200E+03
  19.190  0.0000E+00  0.1200E+03
  19.200  0.0000E+00  0.1200E+03
  19.210  0.0000E+00  0.1200E+03
  19.220  0.0000E+00  0.1200E+03
  19.230  0.0000E+00  0.1200E+03
  19.240  0.0000E+00  0.1200E+03
  19.250  0.0000E+00  0.1200E+03
  19.260  0.0000E+00  0.1200E+03
  19.270  0.0000E+00  0.1200E+03
  19.280  0.0000E+00  0.1200E+03
  19.290  0.0000E+00  0.1200E+03
  19.300  0.0000E+00  0.1200E+03
  19.310  0.0000E+00  0.1200E+03
  19.320  0.0000E+00  0.1200E+03
  19.330  0.0000E+00  0.1200E+03
  19.340  0.0000E+00  0.1200E+03
  19.350  0.0000E+00  0.1200E+03
  19.360  0.0000E+00  0.1200E+03
  19.370  0.0000E+00  0.1200E+03
  19.380  0.0000E+00  0.1200E+03
  19.390  0.0000E+00  0.1200E+03
  19.400  0.0000E+00  0.1200E+03
  19.410  0.0000E+00  0.1200E+03
  19.420  0.0000E+00  0.1200E+03
  19.430  0.0000E+00  0.1200E+03
  19.440  0.0000E+00  0.1200E+03
  19.450  0.0000E+00  0.1200E+03
  19.460  0.0000E+00  0.1200E+03
  19.470  0.0000E+00  0.1200E+03
  19.480  0.0000E+00  0.1200E+03
  19.490  0.0000E+00  0.1200E+03
  19.500  0.0000E+00  0.1200E+03
  19.510  0.0000E+00  0.1200E+03
  19.520  0.0000E+00  0.1200E+03
  19.530  0.0000E+00  0.1200E+03
  19.540  0.0000E+00  0.1200E+03
  19.550  0.0000E+00  0.1200E+03
  19.560  0.0000E+00  0.1200E+03
  19.570  0.0000E+00  0.1200E+03
  19.580  0.0000E+00  0.1200E+03
  19.590  0.0000E+00  0.1200E+03
  19.600  0.0000E+00  0.1200E+03
  19.610  0.0000E+00  0.1200E+03
  19.620  0.0000E+00  0.1200E+03
  19.630  0.0000E+00  0.1200E+03
  19.640  0.0000E+00  0.1200E+03
  19.650  0.0000E+00  0.1200E+03
  19.660  0.0000E+00  0.1200E+03
  19.670  0.0000E+00  0.1200E+03
  19.680  0.0000E+00  0.1200E+03
  19.690  0.0000E+00  0.1200E+03
  19.700  0.0000E+00  0.1200E+03
  19.710  0.0000E+00  0.1200E+03
  19.720  0.0000E+00  0.1200E+03
  19.730  0.0000E+00  0.1200E+03
  19.740  0.0000E+00  0.1200E+03
  19.750  0.0000E+00  0.1200E+03
  19.760  0.0000E+00  0.1200E+03
  19.770  0.0000E+00  0.1200E+03
  19.780  0.0000E+00  0.1200E+03
  19.790  0.0000E+00  0.1200E+03
  19.800  0.0000E+00  0.1200E+03
  19.810  0.0000E+00  0.1200E+03
  19.820  0.0000E+00  0.1200E+03
  19.830  0.0000E+00  0.1200E+03
  19.840  0.0000E+00  0.1200E+03
  19.850  0.0000E+00  0.1200E+03
  19.860  0.0000E+00  0.1200E+03
  19.870  0.0000E+00  0.1200E+03
  19.880  0.0000E+00  0.1200E+03
  19.890  0.0000E+00  0.1200E+03
  19.900  0.0000E+00  0.1200E+03
  19.910  0.0000E+00  0.1200E+03
  19.920  0.0000E+00  0.1200E+03
  19.930  0.0000E+00  0.1200E+03
  19.940  0.0000E+00  0.1200E+03
  19.950  0.0000E+00  0.1200E+03
  19.960  0.0000E+00  0.1200E+03
  19.970  0.0000E+00  0.1200E+03
  19.980  0.0000E+00  0.1200E+03
  19.990  0.0000E+00  0.1200E+03
  20.000  0.0000E+00  0.1200E+03
  20.010  0.0000E+00  0.1200E+03
  20.020  0.0000E+00  0.1200E+03
  20.030  0.0000E+00  0.1200E+03
  20.040  0.0000E+00  0.1200E+03
  20.050  0.0000E+00  0.1200E+03
  20.060  0.0000E+00  0.1200E+03
  20.070  0.0000E+00  0.1200E+03
  20.080  0.0000E+00  0.1200E+03
  20.090  0.0000E+00  0.1200E+03
  20.100  0.0000E+00  0.1200E+03
  20.110  0.0000E+00  0.1200E+03
  20.120  0.0000E+00  0.1200E+03
  20.130  0.0000E+00  0.1200E+03
  20.140  0.0000E+00  0.1200E+03
  20.150  0.0000E+00  0.1200E+03
  20.160  0.0000E+00  0.1200E+03
  20.170  0.0000E+00  0.1200E+03
  20.180  0.0000E+00  0.1200E+03
  20.190  0.0000E+00  0.1200E+03
  20.200  0.0000E+00  0.1200E+03
  20.210  0.0000E+00  0.1200E+03
  20.220  0.0000E+00  0.1200E+03
  20.230  0.0000E+00  0.1200E+03
  20.240  0.0000E+00  0.1200E+03
  20.250  0.0000E+00  0.1200E+03
  20.260  0.0000E+00  0.1200E+03
  20.270  0.0000E+00  0.1200E+03
  20.280  0.0000E+00  0.1200E+03
  20.290  0.0000E+00  0.1200E+03
  20.300  0.0000E+00  0.1200E+03
  20.310  0.0000E+00  0.1200E+03
  20.320  0.0000E+00  0.1200E+03
  20.330  0.0000E+00  0.1200E+03
  20.340  0.0000E+00  0.1200E+03
  20.350  0.0000E+00  0.1200E+03
  20.360  0.0000E+00  0.1200E+03
  20.370  0.0000E+00  0.1200E+03
  20.380  0.0000E+00  0.1200E+03
  20.390  0.0000E+00  0.1200E+03
  20.400  0.0000E+00  0.1200E+03
  20.410  0.0000E+00  0.1200E+03
  20.420  0.0000E+00  0.1200E+03
  20.430  0.0000E+00  0.1200E+03
  20.440  0.0000E+00  0.1200E+03
  20.450  0.0000E+00  0.1200E+03
  20.460  0.0000E+00  0.1200E+03
  20.470  0.0000E+00  0.1200E+03
  20.480  0.0000E+00  0.1200E+03
  20.490  0.0000E+00  0.1200E+03
  20.500  0.0000E+00  0.1200E+03
  20.510  0.0000E+00  0.1200E+03
  20.520  0.0000E+00  0.1200E+03
  20.530  0.0000E+00  0.1200E+03
  20.540  0.0000E+00  0.1200E+03
  20.550  0.0000E+00  0.1200E+03
  20.560  0.0000E+00  0.1200E+03
  20.570  0.0000E+00  0.1200E+03
  20.580  0.0000E+00  0.1200E+03
  20.590  0.0000E+00  0.1200E+03
  20.600  0.0000E+00  0.1200E+03
  20.610  0.0000E+00  0.1200E+03
  20.620  0.0000E+00  0.1200E+03
  20.630  0.0000E+00  0.1200E+03
  20.640  0.0000E+00  0.1200E+03
  20.650  0.0000E+00  0.1200E+03
  20.660  0.0000E+00  0.1200E+03
  20.670  0.0000E+00  0.1200E+03
  20.680  0.0000E+00  0.1200E+03
  20.690  0.0000E+00  0.1200E+03
  20.700  0.0000E+00  0.1200E+03
  20.710  0.0000E+00  0.1200E+03
  20.720  0.0000E+00  0.1200E+03
  20.730  0.0000E+00  0.1200E+03
  20.740  0.0000E+00  0.1200E+03
  20.750  0.0000E+00  0.1200E+03
  20.760  0.0000E+00  0.1200E+03
  20.770  0.0000E+00  0.1200E+03
  20.780  0.0000E+00  0.1200E+03
  20.790  0.0000E+00  0.1200E+03
  20.800  0.0000E+00  0.1200E+03
  20.810  0.0000E+00  0.1200E+03
  20.820  0.0000E+00  0.1200E+03
  20.830  0.0000E+00  0.1200E+03
  20.840  0.0000E+00  0.1200E+03
  20.850  0.0000E+00  0.1200E+03
  20.860  0.0000E+00  0.1200E+03
  20.870  0.0000E+00  0.1200E+03
  20.880  0.0000E+00  0.1200E+03
  20.890  0.0000E+00  0.1200E+03
  20.900  0.0000E+00  0.1200E+03
  20.910  0.0000E+00  0.1200E+03
  20.920  0.0000E+00  0.1200E+03
  20.930  0.0000E+00  0.1200E+03
  20.940  0.0000E+00  0.1200E+03
  20.950  0.0000E+00  0.1200E+03
  20.960  0.0000E+00  0.1200E+03
  20.970  0.0000E+00  0.1200E+03
  20.980  0.0000E+00  0.1200E+03
  20.990  0.0000E+00  0.1200E+03
  21.000  0.0000E+00  0.1200E+03
  21.010  0.0000E+00  0.1200E+03
  21.020  0.0000E+00  0.1200E+03
  21.030  0.0000E+00  0.1200E+03
  21.040  0.0000E+00  0.1200E+03
  21.050  0.0000E+00  0.1200E+03
  21.060  0.0000E+00  0.1200E+03
  21.070  0.0000E+00  0.1200E+03
  21.080  0.0000E+00  0.1200E+03
  21.090  0.0000E+00  0.1200E+03
  21.100  0.0000E+00  0.1200E+03
  21.110  0.0000E+00  0.1200E+03
  21.120  0.0000E+00  0.1200E+03
  21.130  0.0000E+00  0.1200E+03
  21.140  0.0000E+00  0.1200E+03
  21.150  0.0000E+00  0.1200E+03
  21.160  0.0000E+00  0.1200E+03
  21.170  0.0000E+00  0.1200E+03
  21.180  0.0000E+00  0.1200E+03
  21.190  0.0000E+00  0.1200E+03
  21.200  0.0000E+00  0.1200E+03
  21.210  0.0000E+00  0.1200E+03
  21.220  0.0000E+00  0.1200E+03
  21.230  0.0000E+00  0.1200E+03
  21.240  0.0000E+00  0.1200E+03
  21.250  0.0000E+00  0.1200E+03
  21.260  0.0000E+00  0.1200E+03
  21.270  0.0000E+00  0.1200E+03
  21.280  0.0000E+00  0.1200E+03
  21.290  0.0000E+00  0.1200E+03
  21.300  0.0000E+00  0.1200E+03
  21.310  0.0000E+00  0.1200E+03
  21.320  0.0000E+00  0.1200E+03
  21.330  0.0000E+00  0.1200E+03
  21.340  0.0000E+00  0.1200E+03
  21.350  0.0000E+00  0.1200E+03
  21.360  0.0000E+00  0.1200E+03
  21.370  0.0000E+00  0.1200E+03
  21.380  0.0000E+00  0.1200E+03
  21.390  0.0000E+00  0.1200E+03
  21.400  0.0000E+00  0.1200E+03
  21.410  0.0000E+00  0.1200E+03
  21.420  0.0000E+00  0.1200E+03
  21.430  0.0000E+00  0.1200E+03
  21.440  0.0000E+00  0.1200E+03
  21.450  0.0000E+00  0.1200E+03
  21.460  0.0000E+00  0.1200E+03
  21.470  0.0000E+00  0.1200E+03
  21.480  0.0000E+00  0.1200E+03
  21.490  0.0000E+00  0.1200E+03
  21.500  0.0000E+00  0.1200E+03
  21.510  0.0000E+00  0.1200E+03
  21.520  0.0000E+00  0.1200E+03
  21.530  0.0000E+00  0.1200E+03
  21.540  0.0000E+00  0.1200E+03
  21.550  0.0000E+00  0.1200E+03
  21.560  0.0000E+00  0.1200E+03
  21.570  0.0000E+00  0.1200E+03
  21.580  0.0000E+00  0.1200E+03
  21.590  0.0000E+00  0.1200E+03
  21.600  0.0000E+00  0.1200E+03
  21.610  0.0000E+00  0.1200E+03
  21.620  0.0000E+00  0.1200E+03
  21.630  0.0000E+00  0.1200E+03
  21.640  0.0000E+00  0.1200E+03
  21.650  0.0000E+00  0.1200E+03
  21.660  0.0000E+00  0.1200E+03
  21.670  0.0000E+00  0.1200E+03
  21.680  0.0000E+00  0.1200E+03
  21.690  0.0000E+00  0.1200E+03
  21.700  0.0000E+00  0.1200E+03
  21.710  0.0000E+00  0.1200E+03
  21.720  0.0000E+00  0.1200E+03
  21.730  0.0000E+00  0.1200E+03
  21.740  0.0000E+00  0.1200E+03
  21.750  0.0000E+00  0.1200E+03
  21.760  0.0000E+00  0.1200E+03
  21.770  0.0000E+00  0.1200E+03
  21.780  0.0000E+00  0.1200E+03
  21.790  0.0000E+00  0.1200E+03
  21.800  0.0000E+00  0.1200E+03
  21.810  0.0000E+00  0.1200E+03
  21.820  0.0000E+00  0.1200E+03
  21.830  0.0000E+00  0.1200E+03
  21.840  0.0000E+00  0.1200E+03
  21.850  0.0000E+00  0.1200E+03
  21.860  0.0000E+00  0.1200E+03
  21.870  0.0000E+00  0.1200E+03
  21.880  0.0000E+00  0.1200E+03
  21.890  0.0000E+00  0.1200E+03
  21.900  0.0000E+00  0.1200E+03
  21.910  0.0000E+00  0.1200E+03
  21.920  0.0000E+00  0.1200E+03
  21.930  0.0000E+00  0.1200E+03
  21.940  0.0000E+00  0.1200E+03
  21.950  0.0000E+00  0.1200E+03
  21.960  0.0000E+00  0.1200E+03
  21.970  0.0000E+00  0.1200E+03
  21.980  0.0000E+00  0.1200E+03
  21.990  0.0000E+00  0.1200E+03
  22.000  0.0000E+00  0.1200E+03
  22.010  0.0000E+00  0.1200E+03
  22.020  0.0000E+00  0.1200E+03
  22.030  0.0000E+00  0.1200E+03
  22.040  0.0000E+00  0.1200E+03
  22.050  0.0000E+00  0.1200E+03
  22.060  0.0000E+00  0.1200E+03
  22.070  0.0000E+00  0.1200E+03
  22.080  0.0000E+00  0.1200E+03
  22.090  0.0000E+00  0.1200E+03
  22.100  0.0000E+00  0.1200E+03
  22.110  0.0000E+00  0.1200E+03
  22.120  0.0000E+00  0.1200E+03
  22.130  0.0000E+00  0.1200E+03
  22.140  0.0000E+00  0.1200E+03
  22.150  0.0000E+00  0.1200E+03
  22.160  0.0000E+00  0.1200E+03
  22.170  0.0000E+00  0.1200E+03
  22.180  0.0000E+00  0.1200E+03
  22.190  0.0000E+00  0.1200E+03
  22.200  0.0000E+00  0.1200E+03
  22.210  0.0000E+00  0.1200E+03
  22.220  0.0000E+00  0.1200E+03
  22.230  0.0000E+00  0.1200E+03
  22.240  0.0000E+00  0.1200E+03
  22.250  0.0000E+00  0.1200E+03
  22.260  0.0000E+00  0.1200E+03
  22.270  0.0000E+00  0.1200E+03
  22.280  0.0000E+00  0.1200E+03
  22.290  0.0000E+00  0.1200E+03
  22.300  0.0000E+00  0.1200E+03
  22.310  0.0000E+00  0.1200E+03
  22.320  0.0000E+00  0.1200E+03
  22.330  0.0000E+00  0.1200E+03
  22.340  0.0000E+00  0.1200E+03
  22.350  0.0000E+00  0.1200E+03
  22.360  0.0000E+00  0.1200E+03
  22.370  0.0000E+00  0.1200E+03
  22.380  0.0000E+00  0.1200E+03
  22.390  0.0000E+00  0.1200E+03
  22.400  0.0000E+00  0.1200E+03
  22.410  0.0000E+00  0.1200E+03
  22.420  0.0000E+00  0.1200E+03
  22.430  0.0000E+00  0.1200E+03
  22.440  0.0000E+00  0.1200E+03
  22.450  0.0000E+00  0.1200E+03
  22.460  0.0000E+00  0.1200E+03
  22.470  0.0000E+00  0.1200E+03
  22.480  0.0000E+00  0.1200E+03
  22.490  0.0000E+00  0.1200E+03
  22.500  0.0000E+00  0.1200E+03
  22.510  0.0000E+00  0.1200E+03
  22.520  0.0000E+00  0.1200E+03
  22.530  0.0000E+00  0.1200E+03
  22.540  0.0000E+00  0.1200E+03
  22.550  0.0000E+00  0.1200E+03
  22.560  0.0000E+00  0.1200E+03
  22.570  0.0000E+00  0.1200E+03
  22.580  0.0000E+00  0.1200E+03
  22.590  0.0000E+00  0.1200E+03
  22.600  0.0000E+00  0.1200E+03
  22.610  0.0000E+00  0.1200E+03
  22.620  0.0000E+00  0.1200E+03
  22.630  0.0000E+00  0.1200E+03
  22.640  0.0000E+00  0.1200E+03
  22.650  0.0000E+00  0.1200E+03
  22.660  0.0000E+00  0.1200E+03
  22.670  0.0000E+00  0.1200E+03
  22.680  0.0000E+00  0.1200E+03
  22.690  0.0000E+00  0.1200E+03
  22.700  0.0000E+00  0.1200E+03
  22.710  0.0000E+00  0.1200E+03
  22.720  0.0000E+00  0.1200E+03
  22.730  0.0000E+00  0.1200E+03
  22.740  0.0000E+00  0.1200E+03
  22.750  0.0000E+00  0.1200E+03
  22.760  0.0000E+00  0.1200E+03
  22.770  0.0000E+00  0.1200E+03
  22.780  0.0000E+00  0.1200E+03
  22.790  0.0000E+00  0.1200E+03
  22.800  0.0000E+00  0.1200E+03
  22.810  0.0000E+00  0.1200E+03
  22.820  0.0000E+00  0.1200E+03
  22.830  0.0000E+00  0.1200E+03
  22.840  0.0000E+00  0.1200E+03
  22.850  0.0000E+00  0.1200E+03
  22.860  0.0000E+00  0.1200E+03
  22.870  0.0000E+00  0.1200E+03
  22.880  0.0000E+00  0.1200E+03
  22.890  0.0000E+00  0.1200E+03
  22.900  0.0000E+00  0.1200E+03
  22.910  0.0000E+00  0.1200E+03
  22.920  0.0000E+00  0.1200E+03
  22.930  0.0000E+00  0.1200E+03
  22.940  0.0000E+00  0.1200E+03
  22.950  0.0000E+00  0.1200E+03
  22.960  0.0000E+00  0.1200E+03
  22.970  0.0000E+00  0.1200E+03
  22.980  0.0000E+00  0.1200E+03
  22.990  0.0000E+00  0.1200E+03
  23.000  0.0000E+00  0.1200E+03
  23.010  0.0000E+00  0.1200E+03
  23.020  0.0000E+00  0.1200E+03
  23.030  0.0000E+00  0.1200E+03
  23.040  0.0000E+00  0.1200E+03
  23.050  0.0000E+00  0.1200E+03
  23.060  0.0000E+00  0.1200E+03
  23.070  0.0000E+00  0.1200E+03
  23.080  0.0000E+00  0.1200E+03
  23.090  0.0000E+00  0.1200E+03
  23.100  0.0000E+00  0.1200E+03
  23.110  0.0000E+00  0.1200E+03
  23.120  0.0000E+00  0.1200E+03
  23.130  0.0000E+00  0.1200E+03
  23.140  0.0000E+00  0.1200E+03
  23.150  0.0000E+00  0.1200E+03
  23.160  0.0000E+00  0.1200E+03
  23.170  0.0000E+00  0.1200E+03
  23.180  0.0000E+00  0.1200E+03
  23.190  0.0000E+00  0.1200E+03
  23.200  0.0000E+00  0.1200E+03
  23.210  0.0000E+00  0.1200E+03
  23.220  0.0000E+00  0.1200E+03
  23.230  0.0000E+00  0.1200E+03
  23.240  0.0000E+00  0.1200E+03
  23.250  0.0000E+00  0.1200E+03
  23.260  0.0000E+00  0.1200E+03
  23.270  0.0000E+00  0.1200E+03
  23.280  0.0000E+00  0.1200E+03
  23.290  0.0000E+00  0.1200E+03
  23.300  0.0000E+00  0.1200E+03
  23.310  0.0000E+00  0.1200E+03
  23.320  0.0000E+00  0.1200E+03
  23.330  0.0000E+00  0.1200E+03
  23.340  0.0000E+00  0.1200E+03
  23.350  0.0000E+00  0.1200E+03
  23.360  0.0000E+00  0.1200E+03
  23.370  0.0000E+00  0.1200E+03
  23.380  0.0000E+00  0.1200E+03
  23.390  0.0000E+00  0.1200E+03
  23.400  0.0000E+00  0.1200E+03
  23.410  0.0000E+00  0.1200E+03
  23.420  0.0000E+00  0.1200E+03
  23.430  0.0000E+00  0.1200E+03
  23.440  0.0000E+00  0.1200E+03
  23.450  0.0000E+00  0.1200E+03
  23.460  0.0000E+00  0.1200E+03
  23.470  0.0000E+00  0.1200E+03
  23.480  0.0000E+00  0.1200E+03
  23.490  0.0000E+00  0.1200E+03
  23.500  0.0000E+00  0.1200E+03
  23.510  0.0000E+00  0.1200E+03
  23.520  0.0000E+00  0.1200E+03
  23.530  0.0000E+00  0.1200E+03
  23.540  0.0000E+00  0.1200E+03
  23.550  0.0000E+00  0.1200E+03
  23.560  0.0000E+00  0.1200E+03
  23.570  0.0000E+00  0.1200E+03
  23.580  0.0000E+00  0.1200E+03
  23.590  0.0000E+00  0.1200E+03
  23.600  0.0000E+00  0.1200E+03
  23.610  0.0000E+00  0.1200E+03
  23.620  0.0000E+00  0.1200E+03
  23.630  0.0000E+00  0.1200E+03
  23.640  0.0000E+00  0.1200E+03
  23.650  0.0000E+00  0.1200E+03
  23.660  0.0000E+00  0.1200E+03
  23.670  0.0000E+00  0.1200E+03
  23.680  0.0000E+00  0.1200E+03
  23.690  0.0000E+00  0.1200E+03
  23.700  0.0000E+00  0.1200E+03
  23.710  0.0000E+00  0.1200E+03
  23.720  0.0000E+00  0.1200E+03
  23.730  0.0000E+00  0.1200E+03
  23.740  0.0000E+00  0.1200E+03
  23.750  0.0000E+00  0.1200E+03
  23.760  0.0000E+00  0.1200E+03
  23.770  0.0000E+00  0.1200E+03
  23.780  0.0000E+00  0.1200E+03
  23.790  0.0000E+00  0.1200E+03
  23.800  0.0000E+00  0.1200E+03
  23.810  0.0000E+00  0.1200E+03
  23.820  0.0000E+00  0.1200E+03
  23.830  0.0000E+00  0.1200E+03
  23.840  0.0000E+00  0.1200E+03
  23.850  0.0000E+00  0.1200E+03
  23.860  0.0000E+00  0.1200E+03
  23.870  0.0000E+00  0.1200E+03
  23.880  0.0000E+00  0.1200E+03
  23.890  0.0000E+00  0.1200E+03
  23.900  0.0000E+00  0.1200E+03
  23.910  0.0000E+00  0.1200E+03
  23.920  0.0000E+00  0.1200E+03
  23.930  0.0000E+00  0.1200E+03
  23.940  0.0000E+00  0.1200E+03
  23.950  0.0000E+00  0.1200E+03
  23.960  0.0000E+00  0.1200E+03
  23.970  0.0000E+00  0.1200E+03
  23.980  0.0000E+00  0.1200E+03
  23.990  0.0000E+00  0.1200E+03
  24.000  0.0000E+00  0.1200E+03
  24.010  0.0000E+00  0.1200E+03
  24.020  0.0000E+00  0.1200E+03
  24.030  0.0000E+00  0.1200E+03
  24.040  0.0000E+00  0.1200E+03
  24.050  0.0000E+00  0.1200E+03
  24.060  0.0000E+00  0.1200E+03
  24.070  0.0000E+00  0.1200E+03
  24.080  0.0000E+00  0.1200E+03
  24.090  0.0000E+00  0.1200E+03
  24.100  0.0000E+00  0.1200E+03
  24.110  0.0000E+00  0.1200E+03
  24.120  0.0000E+00  0.1200E+03
  24.130  0.0000E+00  0.1200E+03
  24.140  0.0000E+00  0.1200E+03
  24.150  0.0000E+00  0.1200E+03
  24.160  0.0000E+00  0.1200E+03
  24.170  0.0000E+00  0.1200E+03
  24.180  0.0000E+00  0.1200E+03
  24.190  0.0000E+00  0.1200E+03
  24.200  0.0000E+00  0.1200E+03
  24.210  0.0000E+00  0.1200E+03
  24.220  0.0000E+00  0.1200E+03
  24.230  0.0000E+00  0.1200E+03
  24.240  0.0000E+00  0.1200E+03
  24.250  0.0000E+00  0.1200E+03
  24.260  0.0000E+00  0.1200E+03
  24.270  0.0000E+00  0.1200E+03
  24.280  0.0000E+00  0.1200E+03
  24.290  0.0000E+00  0.1200E+03
  24.300  0.0000E+00  0.1200E+03
  24.310  0.0000E+00  0.1200E+03
  24.320  0.0000E+00  0.1200E+03
  24.330  0.0000E+00  0.1200E+03
  24.340  0.0000E+00  0.1200E+03
  24.350  0.0000E+00  0.1200E+03
  24.360  0.0000E+00  0.1200E+03
  24.370  0.0000E+00  0.1200E+03
  24.380  0.0000E+00  0.1200E+03
  24.390  0.0000E+00  0.1200E+03
  24.400  0.0000E+00  0.1200E+03
  24.410  0.0000E+00  0.1200E+03
  24.420  0.0000E+00  0.1200E+03
  24.430  0.0000E+00  0.1200E+03
  24.440  0.0000E+00  0.1200E+03
  24.450  0.0000E+00  0.1200E+03
  24.460  0.0000E+00  0.1200E+03
  24.470  0.0000E+00  0.1200E+03
  24.480  0.0000E+00  0.1200E+03
  24.490  0.0000E+00  0.1200E+03
  24.500  0.0000E+00  0.1200E+03
  24.510  0.0000E+00  0.1200E+03
  24.520  0.0000E+00  0.1200E+03
  24.530  0.0000E+00  0.1200E+03
  24.540  0.0000E+00  0.1200E+03
  24.550  0.0000E+00  0.1200E+03
  24.560  0.0000E+00  0.1200E+03
  24.570  0.0000E+00  0.1200E+03
  24.580  0.0000E+00  0.1200E+03
  24.590  0.0000E+00  0.1200E+03
  24.600  0.0000E+00  0.1200E+03
  24.610  0.0000E+00  0.1200E+03
  24.620  0.0000E+00  0.1200E+03
  24.630  0.0000E+00  0.1200E+03
  24.640  0.0000E+00  0.1200E+03
  24.650  0.0000E+00  0.1200E+03
  24.660  0.0000E+00  0.1200E+03
  24.670  0.0000E+00  0.1200E+03
  24.680  0.0000E+00  0.1200E+03
  24.690  0.0000E+00  0.1200E+03
  24.700  0.0000E+00  0.1200E+03
  24.710  0.0000E+00  0.1200E+03
  24.720  0.0000E+00  0.1200E+03
  24.730  0.0000E+00  0.1200E+03
  24.740  0.0000E+00  0.1200E+03
  24.750  0.0000E+00  0.1200E+03
  24.760  0.0000E+00  0.1200E+03
  24.770  0.0000E+00  0.1200E+03
  24.780  0.0000E+00  0.1200E+03
  24.790  0.0000E+00  0.1200E+03
  24.800  0.0000E+00  0.1200E+03
  24.810  0.0000E+00  0.1200E+03
  24.820  0.0000E+00  0.1200E+03
  24.830  0.0000E+00  0.1200E+03
  24.840  0.0000E+00  0.1200E+03
  24.850  0.0000E+00  0.1200E+03
  24.860  0.0000E+00  0.1200E+03
  24.870  0.0000E+00  0.1200E+03
  24.880  0.0000E+00  0.1200E+03
  24.890  0.0000E+00  0.1200E+03
  24.900  0.0000E+00  0.1200E+03
  24.910  0.0000E+00  0.1200E+03
  24.920  0.0000E+00  0.1200E+03
  24.930  0.0000E+00  0.1200E+03
  24.940  0.0000E+00  0.1200E+03
  24.950  0.0000E+00  0.1200E+03
  24.960  0.0000E+00  0.1200E+03
  24.970  0.0000E+00  0.1200E+03
  24.980  0.0000E+00  0.1200E+03
  24.990  0.0000E+00  0.1200E+03
  25.000  0.0000E+00  0.1200E+03
