#  E (eV)   dos(E)     Int dos(E) EFermi =   10.687 eV
   0.000  0.1490E+02  0.2999E+02
   0.010  0.1427E+02  0.3015E+02
   0.020  0.1500E+02  0.3030E+02
   0.030  0.1705E+02  0.3046E+02
   0.040  0.1882E+02  0.3064E+02
   0.050  0.1600E+02  0.3081E+02
   0.060  0.1769E+02  0.3098E+02
   0.070  0.1256E+02  0.3114E+02
   0.080  0.1228E+02  0.3126E+02
   0.090  0.1575E+02  0.3141E+02
   0.100  0.2099E+02  0.3159E+02
   0.110  0.1427E+02  0.3176E+02
   0.120  0.1121E+02  0.3188E+02
   0.130  0.1352E+02  0.3202E+02
   0.140  0.1344E+02  0.3217E+02
   0.150  0.1291E+02  0.3230E+02
   0.160  0.1556E+02  0.3244E+02
   0.170  0.1382E+02  0.3259E+02
   0.180  0.1123E+02  0.3272E+02
   0.190  0.1079E+02  0.3283E+02
   0.200  0.1077E+02  0.3293E+02
   0.210  0.9562E+01  0.3304E+02
   0.220  0.9656E+01  0.3313E+02
   0.230  0.1436E+02  0.3324E+02
   0.240  0.1317E+02  0.3340E+02
   0.250  0.1202E+02  0.3352E+02
   0.260  0.1203E+02  0.3364E+02
   0.270  0.1203E+02  0.3376E+02
   0.280  0.2079E+02  0.3393E+02
   0.290  0.1232E+02  0.3412E+02
   0.300  0.1240E+02  0.3425E+02
   0.310  0.1418E+02  0.3437E+02
   0.320  0.2979E+02  0.3456E+02
   0.330  0.7950E+01  0.3467E+02
   0.340  0.7666E+01  0.3474E+02
   0.350  0.7498E+01  0.3482E+02
   0.360  0.7332E+01  0.3489E+02
   0.370  0.5701E+01  0.3500E+02
   0.380  0.5634E+01  0.3505E+02
   0.390  0.5486E+01  0.3511E+02
   0.400  0.1544E+02  0.3518E+02
   0.410  0.4416E+01  0.3524E+02
   0.420  0.1094E+02  0.3530E+02
   0.430  0.5536E+01  0.3537E+02
   0.440  0.5638E+01  0.3542E+02
   0.450  0.5740E+01  0.3548E+02
   0.460  0.5842E+01  0.3554E+02
   0.470  0.7078E+01  0.3564E+02
   0.480  0.7274E+01  0.3571E+02
   0.490  0.6657E+01  0.3581E+02
   0.500  0.6894E+01  0.3587E+02
   0.510  0.7131E+01  0.3594E+02
   0.520  0.7369E+01  0.3602E+02
   0.530  0.7736E+01  0.3609E+02
   0.540  0.8498E+01  0.3617E+02
   0.550  0.9603E+01  0.3626E+02
   0.560  0.1131E+02  0.3637E+02
   0.570  0.1309E+02  0.3649E+02
   0.580  0.1566E+02  0.3664E+02
   0.590  0.1669E+02  0.3680E+02
   0.600  0.1902E+02  0.3701E+02
   0.610  0.1942E+02  0.3720E+02
   0.620  0.1978E+02  0.3744E+02
   0.630  0.1275E+02  0.3760E+02
   0.640  0.6686E+01  0.3773E+02
   0.650  0.5483E+01  0.3779E+02
   0.660  0.4280E+01  0.3784E+02
   0.670  0.3539E+01  0.3788E+02
   0.680  0.3659E+01  0.3792E+02
   0.690  0.3081E+01  0.3795E+02
   0.700  0.0000E+00  0.3800E+02
   0.710  0.0000E+00  0.3800E+02
   0.720  0.0000E+00  0.3800E+02
   0.730  0.0000E+00  0.3800E+02
   0.740  0.0000E+00  0.3800E+02
   0.750  0.0000E+00  0.3800E+02
   0.760  0.0000E+00  0.3800E+02
   0.770  0.0000E+00  0.3800E+02
   0.780  0.0000E+00  0.3800E+02
   0.790  0.0000E+00  0.3800E+02
   0.800  0.0000E+00  0.3800E+02
   0.810  0.0000E+00  0.3800E+02
   0.820  0.0000E+00  0.3800E+02
   0.830  0.0000E+00  0.3800E+02
   0.840  0.0000E+00  0.3800E+02
   0.850  0.0000E+00  0.3800E+02
   0.860  0.0000E+00  0.3800E+02
   0.870  0.0000E+00  0.3800E+02
   0.880  0.0000E+00  0.3800E+02
   0.890  0.0000E+00  0.3800E+02
   0.900  0.0000E+00  0.3800E+02
   0.910  0.0000E+00  0.3800E+02
   0.920  0.0000E+00  0.3800E+02
   0.930  0.0000E+00  0.3800E+02
   0.940  0.0000E+00  0.3800E+02
   0.950  0.0000E+00  0.3800E+02
   0.960  0.0000E+00  0.3800E+02
   0.970  0.0000E+00  0.3800E+02
   0.980  0.0000E+00  0.3800E+02
   0.990  0.0000E+00  0.3800E+02
   1.000  0.0000E+00  0.3800E+02
   1.010  0.0000E+00  0.3800E+02
   1.020  0.0000E+00  0.3800E+02
   1.030  0.0000E+00  0.3800E+02
   1.040  0.0000E+00  0.3800E+02
   1.050  0.0000E+00  0.3800E+02
   1.060  0.0000E+00  0.3800E+02
   1.070  0.0000E+00  0.3800E+02
   1.080  0.0000E+00  0.3800E+02
   1.090  0.0000E+00  0.3800E+02
   1.100  0.0000E+00  0.3800E+02
   1.110  0.0000E+00  0.3800E+02
   1.120  0.0000E+00  0.3800E+02
   1.130  0.0000E+00  0.3800E+02
   1.140  0.0000E+00  0.3800E+02
   1.150  0.0000E+00  0.3800E+02
   1.160  0.0000E+00  0.3800E+02
   1.170  0.0000E+00  0.3800E+02
   1.180  0.0000E+00  0.3800E+02
   1.190  0.0000E+00  0.3800E+02
   1.200  0.0000E+00  0.3800E+02
   1.210  0.0000E+00  0.3800E+02
   1.220  0.0000E+00  0.3800E+02
   1.230  0.0000E+00  0.3800E+02
   1.240  0.0000E+00  0.3800E+02
   1.250  0.0000E+00  0.3800E+02
   1.260  0.0000E+00  0.3800E+02
   1.270  0.0000E+00  0.3800E+02
   1.280  0.0000E+00  0.3800E+02
   1.290  0.0000E+00  0.3800E+02
   1.300  0.0000E+00  0.3800E+02
   1.310  0.0000E+00  0.3800E+02
   1.320  0.0000E+00  0.3800E+02
   1.330  0.0000E+00  0.3800E+02
   1.340  0.0000E+00  0.3800E+02
   1.350  0.0000E+00  0.3800E+02
   1.360  0.0000E+00  0.3800E+02
   1.370  0.0000E+00  0.3800E+02
   1.380  0.0000E+00  0.3800E+02
   1.390  0.0000E+00  0.3800E+02
   1.400  0.0000E+00  0.3800E+02
   1.410  0.0000E+00  0.3800E+02
   1.420  0.0000E+00  0.3800E+02
   1.430  0.0000E+00  0.3800E+02
   1.440  0.0000E+00  0.3800E+02
   1.450  0.0000E+00  0.3800E+02
   1.460  0.0000E+00  0.3800E+02
   1.470  0.0000E+00  0.3800E+02
   1.480  0.0000E+00  0.3800E+02
   1.490  0.0000E+00  0.3800E+02
   1.500  0.0000E+00  0.3800E+02
   1.510  0.0000E+00  0.3800E+02
   1.520  0.0000E+00  0.3800E+02
   1.530  0.0000E+00  0.3800E+02
   1.540  0.0000E+00  0.3800E+02
   1.550  0.0000E+00  0.3800E+02
   1.560  0.0000E+00  0.3800E+02
   1.570  0.0000E+00  0.3800E+02
   1.580  0.0000E+00  0.3800E+02
   1.590  0.0000E+00  0.3800E+02
   1.600  0.0000E+00  0.3800E+02
   1.610  0.0000E+00  0.3800E+02
   1.620  0.0000E+00  0.3800E+02
   1.630  0.0000E+00  0.3800E+02
   1.640  0.0000E+00  0.3800E+02
   1.650  0.0000E+00  0.3800E+02
   1.660  0.0000E+00  0.3800E+02
   1.670  0.0000E+00  0.3800E+02
   1.680  0.0000E+00  0.3800E+02
   1.690  0.0000E+00  0.3800E+02
   1.700  0.0000E+00  0.3800E+02
   1.710  0.0000E+00  0.3800E+02
   1.720  0.0000E+00  0.3800E+02
   1.730  0.0000E+00  0.3800E+02
   1.740  0.0000E+00  0.3800E+02
   1.750  0.0000E+00  0.3800E+02
   1.760  0.0000E+00  0.3800E+02
   1.770  0.0000E+00  0.3800E+02
   1.780  0.0000E+00  0.3800E+02
   1.790  0.0000E+00  0.3800E+02
   1.800  0.0000E+00  0.3800E+02
   1.810  0.0000E+00  0.3800E+02
   1.820  0.0000E+00  0.3800E+02
   1.830  0.0000E+00  0.3800E+02
   1.840  0.0000E+00  0.3800E+02
   1.850  0.0000E+00  0.3800E+02
   1.860  0.0000E+00  0.3800E+02
   1.870  0.0000E+00  0.3800E+02
   1.880  0.0000E+00  0.3800E+02
   1.890  0.0000E+00  0.3800E+02
   1.900  0.0000E+00  0.3800E+02
   1.910  0.0000E+00  0.3800E+02
   1.920  0.0000E+00  0.3800E+02
   1.930  0.0000E+00  0.3800E+02
   1.940  0.0000E+00  0.3800E+02
   1.950  0.0000E+00  0.3800E+02
   1.960  0.0000E+00  0.3800E+02
   1.970  0.0000E+00  0.3800E+02
   1.980  0.0000E+00  0.3800E+02
   1.990  0.0000E+00  0.3800E+02
   2.000  0.0000E+00  0.3800E+02
   2.010  0.0000E+00  0.3800E+02
   2.020  0.0000E+00  0.3800E+02
   2.030  0.0000E+00  0.3800E+02
   2.040  0.0000E+00  0.3800E+02
   2.050  0.0000E+00  0.3800E+02
   2.060  0.0000E+00  0.3800E+02
   2.070  0.0000E+00  0.3800E+02
   2.080  0.0000E+00  0.3800E+02
   2.090  0.0000E+00  0.3800E+02
   2.100  0.0000E+00  0.3800E+02
   2.110  0.0000E+00  0.3800E+02
   2.120  0.0000E+00  0.3800E+02
   2.130  0.0000E+00  0.3800E+02
   2.140  0.0000E+00  0.3800E+02
   2.150  0.0000E+00  0.3800E+02
   2.160  0.0000E+00  0.3800E+02
   2.170  0.0000E+00  0.3800E+02
   2.180  0.0000E+00  0.3800E+02
   2.190  0.0000E+00  0.3800E+02
   2.200  0.0000E+00  0.3800E+02
   2.210  0.0000E+00  0.3800E+02
   2.220  0.0000E+00  0.3800E+02
   2.230  0.0000E+00  0.3800E+02
   2.240  0.0000E+00  0.3800E+02
   2.250  0.0000E+00  0.3800E+02
   2.260  0.0000E+00  0.3800E+02
   2.270  0.0000E+00  0.3800E+02
   2.280  0.0000E+00  0.3800E+02
   2.290  0.0000E+00  0.3800E+02
   2.300  0.0000E+00  0.3800E+02
   2.310  0.0000E+00  0.3800E+02
   2.320  0.0000E+00  0.3800E+02
   2.330  0.0000E+00  0.3800E+02
   2.340  0.0000E+00  0.3800E+02
   2.350  0.0000E+00  0.3800E+02
   2.360  0.0000E+00  0.3800E+02
   2.370  0.0000E+00  0.3800E+02
   2.380  0.0000E+00  0.3800E+02
   2.390  0.0000E+00  0.3800E+02
   2.400  0.0000E+00  0.3800E+02
   2.410  0.0000E+00  0.3800E+02
   2.420  0.0000E+00  0.3800E+02
   2.430  0.0000E+00  0.3800E+02
   2.440  0.0000E+00  0.3800E+02
   2.450  0.0000E+00  0.3800E+02
   2.460  0.0000E+00  0.3800E+02
   2.470  0.0000E+00  0.3800E+02
   2.480  0.0000E+00  0.3800E+02
   2.490  0.0000E+00  0.3800E+02
   2.500  0.0000E+00  0.3800E+02
   2.510  0.0000E+00  0.3800E+02
   2.520  0.0000E+00  0.3800E+02
   2.530  0.0000E+00  0.3800E+02
   2.540  0.0000E+00  0.3800E+02
   2.550  0.0000E+00  0.3800E+02
   2.560  0.0000E+00  0.3800E+02
   2.570  0.0000E+00  0.3800E+02
   2.580  0.0000E+00  0.3800E+02
   2.590  0.0000E+00  0.3800E+02
   2.600  0.0000E+00  0.3800E+02
   2.610  0.0000E+00  0.3800E+02
   2.620  0.0000E+00  0.3800E+02
   2.630  0.0000E+00  0.3800E+02
   2.640  0.0000E+00  0.3800E+02
   2.650  0.0000E+00  0.3800E+02
   2.660  0.0000E+00  0.3800E+02
   2.670  0.0000E+00  0.3800E+02
   2.680  0.0000E+00  0.3800E+02
   2.690  0.0000E+00  0.3800E+02
   2.700  0.0000E+00  0.3800E+02
   2.710  0.0000E+00  0.3800E+02
   2.720  0.0000E+00  0.3800E+02
   2.730  0.0000E+00  0.3800E+02
   2.740  0.0000E+00  0.3800E+02
   2.750  0.0000E+00  0.3800E+02
   2.760  0.0000E+00  0.3800E+02
   2.770  0.0000E+00  0.3800E+02
   2.780  0.0000E+00  0.3800E+02
   2.790  0.0000E+00  0.3800E+02
   2.800  0.0000E+00  0.3800E+02
   2.810  0.0000E+00  0.3800E+02
   2.820  0.0000E+00  0.3800E+02
   2.830  0.0000E+00  0.3800E+02
   2.840  0.0000E+00  0.3800E+02
   2.850  0.0000E+00  0.3800E+02
   2.860  0.0000E+00  0.3800E+02
   2.870  0.0000E+00  0.3800E+02
   2.880  0.0000E+00  0.3800E+02
   2.890  0.0000E+00  0.3800E+02
   2.900  0.0000E+00  0.3800E+02
   2.910  0.0000E+00  0.3800E+02
   2.920  0.0000E+00  0.3800E+02
   2.930  0.0000E+00  0.3800E+02
   2.940  0.0000E+00  0.3800E+02
   2.950  0.0000E+00  0.3800E+02
   2.960  0.0000E+00  0.3800E+02
   2.970  0.0000E+00  0.3800E+02
   2.980  0.0000E+00  0.3800E+02
   2.990  0.0000E+00  0.3800E+02
   3.000  0.0000E+00  0.3800E+02
   3.010  0.1001E+01  0.3801E+02
   3.020  0.1420E+01  0.3802E+02
   3.030  0.3586E+00  0.3804E+02
   3.040  0.3682E+00  0.3804E+02
   3.050  0.3778E+00  0.3804E+02
   3.060  0.3874E+00  0.3805E+02
   3.070  0.3970E+00  0.3805E+02
   3.080  0.4066E+00  0.3806E+02
   3.090  0.4162E+00  0.3806E+02
   3.100  0.4258E+00  0.3806E+02
   3.110  0.4354E+00  0.3807E+02
   3.120  0.4450E+00  0.3807E+02
   3.130  0.4546E+00  0.3808E+02
   3.140  0.4642E+00  0.3808E+02
   3.150  0.4738E+00  0.3809E+02
   3.160  0.4834E+00  0.3809E+02
   3.170  0.4930E+00  0.3810E+02
   3.180  0.5026E+00  0.3810E+02
   3.190  0.5122E+00  0.3811E+02
   3.200  0.5218E+00  0.3811E+02
   3.210  0.5314E+00  0.3812E+02
   3.220  0.5410E+00  0.3812E+02
   3.230  0.5506E+00  0.3813E+02
   3.240  0.5602E+00  0.3813E+02
   3.250  0.5698E+00  0.3814E+02
   3.260  0.5794E+00  0.3814E+02
   3.270  0.5890E+00  0.3815E+02
   3.280  0.5986E+00  0.3816E+02
   3.290  0.6082E+00  0.3816E+02
   3.300  0.6178E+00  0.3817E+02
   3.310  0.6274E+00  0.3817E+02
   3.320  0.6370E+00  0.3818E+02
   3.330  0.6466E+00  0.3819E+02
   3.340  0.6562E+00  0.3819E+02
   3.350  0.6658E+00  0.3820E+02
   3.360  0.6754E+00  0.3821E+02
   3.370  0.6721E+00  0.3821E+02
   3.380  0.6483E+00  0.3822E+02
   3.390  0.6242E+00  0.3823E+02
   3.400  0.6220E+00  0.3823E+02
   3.410  0.6264E+00  0.3824E+02
   3.420  0.6307E+00  0.3825E+02
   3.430  0.6351E+00  0.3825E+02
   3.440  0.6394E+00  0.3826E+02
   3.450  0.6437E+00  0.3826E+02
   3.460  0.6481E+00  0.3827E+02
   3.470  0.6524E+00  0.3828E+02
   3.480  0.6567E+00  0.3828E+02
   3.490  0.6611E+00  0.3829E+02
   3.500  0.6654E+00  0.3830E+02
   3.510  0.6698E+00  0.3830E+02
   3.520  0.6741E+00  0.3831E+02
   3.530  0.6784E+00  0.3832E+02
   3.540  0.6828E+00  0.3832E+02
   3.550  0.6871E+00  0.3833E+02
   3.560  0.6914E+00  0.3834E+02
   3.570  0.6958E+00  0.3835E+02
   3.580  0.7001E+00  0.3835E+02
   3.590  0.7045E+00  0.3836E+02
   3.600  0.7088E+00  0.3837E+02
   3.610  0.7131E+00  0.3837E+02
   3.620  0.1644E+01  0.3839E+02
   3.630  0.1513E+01  0.3841E+02
   3.640  0.1860E+01  0.3842E+02
   3.650  0.1170E+01  0.3844E+02
   3.660  0.1188E+01  0.3846E+02
   3.670  0.1206E+01  0.3847E+02
   3.680  0.1223E+01  0.3848E+02
   3.690  0.1241E+01  0.3849E+02
   3.700  0.1259E+01  0.3850E+02
   3.710  0.1276E+01  0.3852E+02
   3.720  0.1295E+01  0.3853E+02
   3.730  0.1314E+01  0.3854E+02
   3.740  0.1333E+01  0.3856E+02
   3.750  0.1353E+01  0.3857E+02
   3.760  0.1372E+01  0.3858E+02
   3.770  0.1392E+01  0.3860E+02
   3.780  0.1411E+01  0.3861E+02
   3.790  0.1431E+01  0.3863E+02
   3.800  0.1450E+01  0.3864E+02
   3.810  0.1470E+01  0.3865E+02
   3.820  0.1489E+01  0.3867E+02
   3.830  0.1509E+01  0.3868E+02
   3.840  0.1528E+01  0.3870E+02
   3.850  0.1548E+01  0.3871E+02
   3.860  0.1603E+01  0.3873E+02
   3.870  0.1644E+01  0.3875E+02
   3.880  0.1728E+01  0.3876E+02
   3.890  0.1817E+01  0.3878E+02
   3.900  0.1868E+01  0.3880E+02
   3.910  0.1903E+01  0.3882E+02
   3.920  0.1937E+01  0.3884E+02
   3.930  0.1969E+01  0.3886E+02
   3.940  0.2002E+01  0.3888E+02
   3.950  0.2035E+01  0.3890E+02
   3.960  0.2068E+01  0.3892E+02
   3.970  0.2100E+01  0.3894E+02
   3.980  0.2131E+01  0.3896E+02
   3.990  0.2163E+01  0.3898E+02
   4.000  0.2195E+01  0.3900E+02
   4.010  0.2227E+01  0.3902E+02
   4.020  0.2259E+01  0.3905E+02
   4.030  0.2291E+01  0.3907E+02
   4.040  0.2323E+01  0.3909E+02
   4.050  0.2355E+01  0.3912E+02
   4.060  0.2387E+01  0.3914E+02
   4.070  0.2419E+01  0.3916E+02
   4.080  0.2451E+01  0.3919E+02
   4.090  0.2483E+01  0.3921E+02
   4.100  0.2515E+01  0.3924E+02
   4.110  0.3105E+01  0.3927E+02
   4.120  0.3125E+01  0.3930E+02
   4.130  0.2883E+01  0.3933E+02
   4.140  0.2904E+01  0.3936E+02
   4.150  0.2853E+01  0.3939E+02
   4.160  0.2874E+01  0.3942E+02
   4.170  0.2894E+01  0.3944E+02
   4.180  0.3069E+01  0.3951E+02
   4.190  0.2945E+01  0.3954E+02
   4.200  0.3042E+01  0.3957E+02
   4.210  0.3098E+01  0.3960E+02
   4.220  0.3155E+01  0.3963E+02
   4.230  0.3214E+01  0.3966E+02
   4.240  0.3489E+01  0.3970E+02
   4.250  0.3733E+01  0.3974E+02
   4.260  0.3825E+01  0.3977E+02
   4.270  0.3822E+01  0.3981E+02
   4.280  0.3823E+01  0.3985E+02
   4.290  0.3824E+01  0.3989E+02
   4.300  0.3821E+01  0.3993E+02
   4.310  0.3815E+01  0.3997E+02
   4.320  0.3831E+01  0.4000E+02
   4.330  0.3823E+01  0.4004E+02
   4.340  0.3812E+01  0.4008E+02
   4.350  0.9553E+01  0.4014E+02
   4.360  0.3149E+01  0.4018E+02
   4.370  0.3120E+01  0.4022E+02
   4.380  0.5149E+01  0.4026E+02
   4.390  0.5221E+01  0.4031E+02
   4.400  0.6026E+01  0.4037E+02
   4.410  0.8155E+01  0.4044E+02
   4.420  0.7725E+01  0.4052E+02
   4.430  0.5773E+01  0.4060E+02
   4.440  0.5818E+01  0.4066E+02
   4.450  0.3907E+01  0.4074E+02
   4.460  0.3853E+01  0.4078E+02
   4.470  0.3763E+01  0.4082E+02
   4.480  0.3736E+01  0.4086E+02
   4.490  0.3705E+01  0.4089E+02
   4.500  0.3687E+01  0.4093E+02
   4.510  0.3669E+01  0.4097E+02
   4.520  0.3647E+01  0.4100E+02
   4.530  0.3620E+01  0.4104E+02
   4.540  0.3589E+01  0.4108E+02
   4.550  0.3549E+01  0.4111E+02
   4.560  0.3509E+01  0.4115E+02
   4.570  0.3473E+01  0.4118E+02
   4.580  0.3433E+01  0.4122E+02
   4.590  0.3396E+01  0.4125E+02
   4.600  0.3360E+01  0.4128E+02
   4.610  0.3324E+01  0.4132E+02
   4.620  0.3240E+01  0.4135E+02
   4.630  0.3215E+01  0.4138E+02
   4.640  0.3191E+01  0.4141E+02
   4.650  0.3175E+01  0.4145E+02
   4.660  0.3160E+01  0.4148E+02
   4.670  0.3146E+01  0.4151E+02
   4.680  0.3132E+01  0.4154E+02
   4.690  0.3119E+01  0.4157E+02
   4.700  0.3107E+01  0.4160E+02
   4.710  0.3094E+01  0.4163E+02
   4.720  0.3082E+01  0.4167E+02
   4.730  0.3069E+01  0.4170E+02
   4.740  0.3057E+01  0.4173E+02
   4.750  0.3044E+01  0.4176E+02
   4.760  0.3032E+01  0.4179E+02
   4.770  0.3019E+01  0.4182E+02
   4.780  0.3007E+01  0.4185E+02
   4.790  0.2994E+01  0.4188E+02
   4.800  0.2981E+01  0.4191E+02
   4.810  0.3482E+01  0.4195E+02
   4.820  0.3576E+01  0.4198E+02
   4.830  0.3558E+01  0.4202E+02
   4.840  0.3652E+01  0.4205E+02
   4.850  0.3765E+01  0.4209E+02
   4.860  0.3891E+01  0.4213E+02
   4.870  0.5171E+01  0.4220E+02
   4.880  0.5455E+01  0.4226E+02
   4.890  0.5762E+01  0.4231E+02
   4.900  0.5855E+01  0.4237E+02
   4.910  0.6170E+01  0.4243E+02
   4.920  0.7167E+01  0.4253E+02
   4.930  0.7559E+01  0.4261E+02
   4.940  0.7969E+01  0.4269E+02
   4.950  0.8331E+01  0.4277E+02
   4.960  0.8387E+01  0.4285E+02
   4.970  0.8189E+01  0.4294E+02
   4.980  0.8055E+01  0.4302E+02
   4.990  0.8003E+01  0.4310E+02
   5.000  0.7950E+01  0.4318E+02
   5.010  0.7898E+01  0.4326E+02
   5.020  0.8911E+01  0.4334E+02
   5.030  0.8201E+01  0.4342E+02
   5.040  0.7308E+01  0.4350E+02
   5.050  0.6936E+01  0.4357E+02
   5.060  0.6968E+01  0.4364E+02
   5.070  0.7000E+01  0.4371E+02
   5.080  0.7033E+01  0.4378E+02
   5.090  0.6997E+01  0.4385E+02
   5.100  0.6983E+01  0.4392E+02
   5.110  0.6976E+01  0.4399E+02
   5.120  0.6944E+01  0.4406E+02
   5.130  0.6819E+01  0.4413E+02
   5.140  0.6813E+01  0.4420E+02
   5.150  0.8783E+01  0.4427E+02
   5.160  0.7970E+01  0.4435E+02
   5.170  0.6316E+01  0.4442E+02
   5.180  0.6355E+01  0.4449E+02
   5.190  0.6388E+01  0.4455E+02
   5.200  0.1200E+02  0.4463E+02
   5.210  0.6808E+01  0.4471E+02
   5.220  0.7172E+01  0.4478E+02
   5.230  0.7481E+01  0.4486E+02
   5.240  0.7775E+01  0.4493E+02
   5.250  0.7967E+01  0.4501E+02
   5.260  0.8049E+01  0.4509E+02
   5.270  0.8126E+01  0.4517E+02
   5.280  0.8204E+01  0.4525E+02
   5.290  0.1247E+02  0.4535E+02
   5.300  0.1328E+02  0.4549E+02
   5.310  0.1047E+02  0.4560E+02
   5.320  0.9363E+01  0.4570E+02
   5.330  0.8948E+01  0.4579E+02
   5.340  0.8685E+01  0.4588E+02
   5.350  0.8439E+01  0.4597E+02
   5.360  0.7641E+01  0.4605E+02
   5.370  0.7720E+01  0.4613E+02
   5.380  0.7799E+01  0.4621E+02
   5.390  0.7882E+01  0.4629E+02
   5.400  0.7957E+01  0.4637E+02
   5.410  0.8014E+01  0.4645E+02
   5.420  0.1555E+02  0.4654E+02
   5.430  0.1258E+02  0.4668E+02
   5.440  0.1843E+02  0.4683E+02
   5.450  0.3209E+02  0.4711E+02
   5.460  0.1753E+02  0.4737E+02
   5.470  0.1606E+02  0.4753E+02
   5.480  0.1455E+02  0.4769E+02
   5.490  0.1250E+02  0.4783E+02
   5.500  0.1148E+02  0.4796E+02
   5.510  0.1318E+02  0.4808E+02
   5.520  0.1410E+02  0.4823E+02
   5.530  0.1852E+02  0.4839E+02
   5.540  0.1407E+02  0.4862E+02
   5.550  0.1108E+02  0.4874E+02
   5.560  0.1148E+02  0.4886E+02
   5.570  0.1161E+02  0.4897E+02
   5.580  0.1134E+02  0.4909E+02
   5.590  0.1049E+02  0.4920E+02
   5.600  0.1012E+02  0.4930E+02
   5.610  0.1156E+02  0.4940E+02
   5.620  0.1091E+02  0.4952E+02
   5.630  0.1104E+02  0.4963E+02
   5.640  0.1410E+02  0.4978E+02
   5.650  0.1063E+02  0.4990E+02
   5.660  0.1043E+02  0.5001E+02
   5.670  0.1066E+02  0.5012E+02
   5.680  0.1108E+02  0.5023E+02
   5.690  0.1180E+02  0.5034E+02
   5.700  0.1224E+02  0.5046E+02
   5.710  0.1158E+02  0.5058E+02
   5.720  0.1303E+02  0.5073E+02
   5.730  0.1295E+02  0.5087E+02
   5.740  0.1312E+02  0.5100E+02
   5.750  0.1266E+02  0.5113E+02
   5.760  0.1220E+02  0.5125E+02
   5.770  0.9087E+01  0.5137E+02
   5.780  0.7103E+01  0.5145E+02
   5.790  0.5639E+01  0.5151E+02
   5.800  0.4481E+01  0.5156E+02
   5.810  0.4568E+01  0.5161E+02
   5.820  0.4741E+01  0.5166E+02
   5.830  0.4693E+01  0.5170E+02
   5.840  0.4690E+01  0.5175E+02
   5.850  0.5156E+01  0.5180E+02
   5.860  0.5045E+01  0.5185E+02
   5.870  0.4486E+01  0.5190E+02
   5.880  0.4429E+01  0.5194E+02
   5.890  0.4349E+01  0.5198E+02
   5.900  0.4204E+01  0.5203E+02
   5.910  0.3444E+01  0.5207E+02
   5.920  0.2867E+01  0.5210E+02
   5.930  0.2636E+01  0.5213E+02
   5.940  0.2511E+01  0.5215E+02
   5.950  0.2517E+01  0.5218E+02
   5.960  0.2507E+01  0.5220E+02
   5.970  0.2491E+01  0.5223E+02
   5.980  0.2640E+01  0.5226E+02
   5.990  0.2778E+01  0.5228E+02
   6.000  0.3051E+01  0.5231E+02
   6.010  0.3467E+01  0.5234E+02
   6.020  0.3748E+01  0.5238E+02
   6.030  0.4062E+01  0.5242E+02
   6.040  0.4470E+01  0.5246E+02
   6.050  0.5163E+01  0.5251E+02
   6.060  0.5724E+01  0.5256E+02
   6.070  0.5942E+01  0.5262E+02
   6.080  0.6049E+01  0.5268E+02
   6.090  0.6050E+01  0.5274E+02
   6.100  0.6037E+01  0.5280E+02
   6.110  0.6024E+01  0.5286E+02
   6.120  0.6010E+01  0.5292E+02
   6.130  0.5997E+01  0.5298E+02
   6.140  0.5984E+01  0.5304E+02
   6.150  0.6930E+01  0.5312E+02
   6.160  0.6583E+01  0.5318E+02
   6.170  0.6596E+01  0.5325E+02
   6.180  0.9675E+01  0.5333E+02
   6.190  0.6139E+01  0.5340E+02
   6.200  0.7231E+01  0.5347E+02
   6.210  0.8403E+01  0.5355E+02
   6.220  0.9385E+01  0.5364E+02
   6.230  0.8553E+01  0.5373E+02
   6.240  0.8915E+01  0.5382E+02
   6.250  0.9132E+01  0.5391E+02
   6.260  0.9056E+01  0.5400E+02
   6.270  0.9291E+01  0.5411E+02
   6.280  0.7543E+01  0.5419E+02
   6.290  0.7795E+01  0.5427E+02
   6.300  0.8114E+01  0.5435E+02
   6.310  0.1103E+02  0.5445E+02
   6.320  0.8969E+01  0.5454E+02
   6.330  0.9582E+01  0.5464E+02
   6.340  0.1209E+02  0.5476E+02
   6.350  0.1222E+02  0.5488E+02
   6.360  0.1146E+02  0.5501E+02
   6.370  0.1090E+02  0.5512E+02
   6.380  0.1067E+02  0.5523E+02
   6.390  0.1120E+02  0.5533E+02
   6.400  0.1057E+02  0.5544E+02
   6.410  0.9766E+01  0.5554E+02
   6.420  0.1059E+02  0.5566E+02
   6.430  0.8971E+01  0.5576E+02
   6.440  0.8684E+01  0.5585E+02
   6.450  0.8522E+01  0.5595E+02
   6.460  0.8158E+01  0.5603E+02
   6.470  0.8227E+01  0.5611E+02
   6.480  0.6810E+01  0.5619E+02
   6.490  0.6811E+01  0.5626E+02
   6.500  0.6801E+01  0.5632E+02
   6.510  0.1561E+02  0.5643E+02
   6.520  0.7877E+01  0.5653E+02
   6.530  0.7952E+01  0.5662E+02
   6.540  0.7896E+01  0.5670E+02
   6.550  0.8561E+01  0.5678E+02
   6.560  0.7572E+01  0.5686E+02
   6.570  0.7275E+01  0.5694E+02
   6.580  0.7460E+01  0.5701E+02
   6.590  0.7668E+01  0.5709E+02
   6.600  0.7928E+01  0.5717E+02
   6.610  0.8436E+01  0.5725E+02
   6.620  0.1210E+02  0.5734E+02
   6.630  0.1376E+02  0.5747E+02
   6.640  0.1406E+02  0.5761E+02
   6.650  0.1574E+02  0.5776E+02
   6.660  0.2122E+02  0.5794E+02
   6.670  0.2206E+02  0.5816E+02
   6.680  0.2103E+02  0.5838E+02
   6.690  0.1638E+02  0.5856E+02
   6.700  0.1525E+02  0.5871E+02
   6.710  0.1428E+02  0.5886E+02
   6.720  0.1370E+02  0.5900E+02
   6.730  0.1361E+02  0.5915E+02
   6.740  0.1636E+02  0.5930E+02
   6.750  0.1971E+02  0.5948E+02
   6.760  0.2117E+02  0.5968E+02
   6.770  0.2238E+02  0.5990E+02
   6.780  0.2344E+02  0.6013E+02
   6.790  0.2512E+02  0.6044E+02
   6.800  0.2382E+02  0.6069E+02
   6.810  0.1824E+02  0.6092E+02
   6.820  0.1423E+02  0.6109E+02
   6.830  0.1288E+02  0.6123E+02
   6.840  0.1084E+02  0.6135E+02
   6.850  0.9820E+01  0.6145E+02
   6.860  0.1057E+02  0.6155E+02
   6.870  0.1266E+02  0.6169E+02
   6.880  0.1080E+02  0.6182E+02
   6.890  0.1002E+02  0.6192E+02
   6.900  0.1021E+02  0.6202E+02
   6.910  0.1058E+02  0.6214E+02
   6.920  0.1074E+02  0.6224E+02
   6.930  0.1622E+02  0.6235E+02
   6.940  0.1235E+02  0.6250E+02
   6.950  0.1384E+02  0.6264E+02
   6.960  0.1381E+02  0.6278E+02
   6.970  0.1266E+02  0.6291E+02
   6.980  0.1268E+02  0.6303E+02
   6.990  0.1277E+02  0.6316E+02
   7.000  0.1316E+02  0.6329E+02
   7.010  0.1287E+02  0.6342E+02
   7.020  0.1224E+02  0.6354E+02
   7.030  0.1330E+02  0.6368E+02
   7.040  0.1297E+02  0.6381E+02
   7.050  0.1319E+02  0.6394E+02
   7.060  0.1235E+02  0.6407E+02
   7.070  0.1261E+02  0.6420E+02
   7.080  0.1273E+02  0.6432E+02
   7.090  0.1240E+02  0.6445E+02
   7.100  0.1189E+02  0.6457E+02
   7.110  0.1066E+02  0.6468E+02
   7.120  0.1027E+02  0.6479E+02
   7.130  0.1010E+02  0.6489E+02
   7.140  0.1003E+02  0.6499E+02
   7.150  0.9977E+01  0.6509E+02
   7.160  0.9981E+01  0.6519E+02
   7.170  0.9916E+01  0.6529E+02
   7.180  0.9996E+01  0.6539E+02
   7.190  0.1033E+02  0.6549E+02
   7.200  0.9350E+01  0.6559E+02
   7.210  0.8854E+01  0.6568E+02
   7.220  0.8605E+01  0.6577E+02
   7.230  0.8752E+01  0.6586E+02
   7.240  0.8530E+01  0.6594E+02
   7.250  0.8717E+01  0.6603E+02
   7.260  0.9892E+01  0.6612E+02
   7.270  0.9995E+01  0.6622E+02
   7.280  0.8551E+01  0.6632E+02
   7.290  0.1020E+02  0.6641E+02
   7.300  0.1342E+02  0.6653E+02
   7.310  0.1409E+02  0.6667E+02
   7.320  0.1558E+02  0.6682E+02
   7.330  0.1377E+02  0.6697E+02
   7.340  0.1279E+02  0.6711E+02
   7.350  0.1077E+02  0.6723E+02
   7.360  0.1255E+02  0.6739E+02
   7.370  0.1146E+02  0.6751E+02
   7.380  0.1419E+02  0.6764E+02
   7.390  0.8675E+01  0.6774E+02
   7.400  0.8388E+01  0.6782E+02
   7.410  0.8181E+01  0.6790E+02
   7.420  0.8416E+01  0.6799E+02
   7.430  0.8740E+01  0.6807E+02
   7.440  0.8500E+01  0.6816E+02
   7.450  0.8234E+01  0.6824E+02
   7.460  0.8163E+01  0.6833E+02
   7.470  0.8191E+01  0.6841E+02
   7.480  0.1330E+02  0.6850E+02
   7.490  0.7815E+01  0.6861E+02
   7.500  0.6464E+01  0.6869E+02
   7.510  0.6187E+01  0.6876E+02
   7.520  0.6001E+01  0.6882E+02
   7.530  0.5890E+01  0.6888E+02
   7.540  0.5748E+01  0.6894E+02
   7.550  0.5627E+01  0.6899E+02
   7.560  0.5534E+01  0.6905E+02
   7.570  0.5446E+01  0.6910E+02
   7.580  0.5770E+01  0.6916E+02
   7.590  0.5420E+01  0.6922E+02
   7.600  0.5273E+01  0.6927E+02
   7.610  0.5189E+01  0.6933E+02
   7.620  0.5019E+01  0.6938E+02
   7.630  0.4375E+01  0.6943E+02
   7.640  0.4303E+01  0.6947E+02
   7.650  0.4239E+01  0.6951E+02
   7.660  0.5770E+01  0.6957E+02
   7.670  0.7640E+01  0.6965E+02
   7.680  0.6306E+01  0.6973E+02
   7.690  0.5777E+01  0.6979E+02
   7.700  0.5542E+01  0.6985E+02
   7.710  0.5526E+01  0.6991E+02
   7.720  0.5553E+01  0.6996E+02
   7.730  0.5696E+01  0.7002E+02
   7.740  0.6722E+01  0.7008E+02
   7.750  0.6975E+01  0.7015E+02
   7.760  0.7775E+01  0.7022E+02
   7.770  0.8083E+01  0.7030E+02
   7.780  0.8223E+01  0.7039E+02
   7.790  0.9595E+01  0.7049E+02
   7.800  0.1106E+02  0.7059E+02
   7.810  0.5503E+01  0.7069E+02
   7.820  0.5737E+01  0.7074E+02
   7.830  0.6043E+01  0.7080E+02
   7.840  0.6412E+01  0.7086E+02
   7.850  0.6839E+01  0.7093E+02
   7.860  0.1125E+02  0.7101E+02
   7.870  0.2117E+02  0.7115E+02
   7.880  0.1647E+02  0.7133E+02
   7.890  0.1699E+02  0.7151E+02
   7.900  0.1251E+02  0.7165E+02
   7.910  0.8135E+01  0.7176E+02
   7.920  0.7810E+01  0.7184E+02
   7.930  0.9383E+01  0.7192E+02
   7.940  0.1352E+02  0.7203E+02
   7.950  0.1383E+02  0.7217E+02
   7.960  0.1350E+02  0.7231E+02
   7.970  0.1427E+02  0.7244E+02
   7.980  0.1555E+02  0.7260E+02
   7.990  0.1773E+02  0.7276E+02
   8.000  0.1769E+02  0.7295E+02
   8.010  0.1482E+02  0.7311E+02
   8.020  0.1480E+02  0.7326E+02
   8.030  0.1514E+02  0.7341E+02
   8.040  0.1816E+02  0.7359E+02
   8.050  0.1942E+02  0.7378E+02
   8.060  0.1910E+02  0.7397E+02
   8.070  0.1883E+02  0.7416E+02
   8.080  0.1748E+02  0.7438E+02
   8.090  0.2170E+02  0.7459E+02
   8.100  0.1842E+02  0.7478E+02
   8.110  0.1726E+02  0.7499E+02
   8.120  0.1439E+02  0.7515E+02
   8.130  0.1565E+02  0.7530E+02
   8.140  0.1344E+02  0.7546E+02
   8.150  0.1153E+02  0.7558E+02
   8.160  0.1133E+02  0.7569E+02
   8.170  0.1095E+02  0.7581E+02
   8.180  0.1073E+02  0.7591E+02
   8.190  0.1069E+02  0.7602E+02
   8.200  0.1102E+02  0.7613E+02
   8.210  0.1542E+02  0.7627E+02
   8.220  0.2274E+02  0.7648E+02
   8.230  0.1386E+02  0.7663E+02
   8.240  0.1392E+02  0.7677E+02
   8.250  0.2210E+02  0.7695E+02
   8.260  0.1098E+02  0.7711E+02
   8.270  0.9630E+01  0.7722E+02
   8.280  0.9086E+01  0.7731E+02
   8.290  0.8595E+01  0.7740E+02
   8.300  0.8178E+01  0.7748E+02
   8.310  0.7792E+01  0.7756E+02
   8.320  0.7442E+01  0.7764E+02
   8.330  0.1003E+02  0.7774E+02
   8.340  0.9089E+01  0.7783E+02
   8.350  0.8661E+01  0.7792E+02
   8.360  0.7825E+01  0.7801E+02
   8.370  0.7634E+01  0.7808E+02
   8.380  0.7426E+01  0.7816E+02
   8.390  0.7078E+01  0.7824E+02
   8.400  0.7041E+01  0.7831E+02
   8.410  0.7054E+01  0.7838E+02
   8.420  0.7034E+01  0.7845E+02
   8.430  0.7186E+01  0.7852E+02
   8.440  0.7197E+01  0.7859E+02
   8.450  0.7211E+01  0.7866E+02
   8.460  0.7826E+01  0.7874E+02
   8.470  0.9156E+01  0.7882E+02
   8.480  0.1653E+02  0.7896E+02
   8.490  0.9247E+01  0.7914E+02
   8.500  0.9263E+01  0.7923E+02
   8.510  0.9149E+01  0.7932E+02
   8.520  0.9119E+01  0.7941E+02
   8.530  0.1023E+02  0.7952E+02
   8.540  0.1069E+02  0.7962E+02
   8.550  0.1092E+02  0.7973E+02
   8.560  0.1259E+02  0.7984E+02
   8.570  0.1045E+02  0.7996E+02
   8.580  0.9102E+01  0.8007E+02
   8.590  0.9057E+01  0.8016E+02
   8.600  0.8975E+01  0.8025E+02
   8.610  0.9658E+01  0.8034E+02
   8.620  0.1000E+02  0.8044E+02
   8.630  0.1061E+02  0.8055E+02
   8.640  0.1082E+02  0.8065E+02
   8.650  0.1024E+02  0.8076E+02
   8.660  0.9295E+01  0.8086E+02
   8.670  0.8737E+01  0.8095E+02
   8.680  0.1039E+02  0.8104E+02
   8.690  0.1900E+02  0.8120E+02
   8.700  0.1429E+02  0.8137E+02
   8.710  0.1225E+02  0.8150E+02
   8.720  0.1181E+02  0.8162E+02
   8.730  0.1121E+02  0.8174E+02
   8.740  0.1242E+02  0.8185E+02
   8.750  0.1082E+02  0.8197E+02
   8.760  0.1056E+02  0.8207E+02
   8.770  0.1072E+02  0.8218E+02
   8.780  0.1285E+02  0.8230E+02
   8.790  0.1967E+02  0.8246E+02
   8.800  0.1347E+02  0.8263E+02
   8.810  0.1355E+02  0.8277E+02
   8.820  0.1317E+02  0.8290E+02
   8.830  0.1308E+02  0.8303E+02
   8.840  0.1357E+02  0.8317E+02
   8.850  0.1205E+02  0.8329E+02
   8.860  0.1207E+02  0.8341E+02
   8.870  0.1313E+02  0.8355E+02
   8.880  0.1256E+02  0.8368E+02
   8.890  0.1251E+02  0.8380E+02
   8.900  0.1144E+02  0.8393E+02
   8.910  0.1240E+02  0.8405E+02
   8.920  0.1204E+02  0.8417E+02
   8.930  0.1211E+02  0.8429E+02
   8.940  0.1311E+02  0.8443E+02
   8.950  0.1396E+02  0.8457E+02
   8.960  0.1473E+02  0.8471E+02
   8.970  0.1919E+02  0.8487E+02
   8.980  0.2033E+02  0.8509E+02
   8.990  0.1623E+02  0.8526E+02
   9.000  0.1602E+02  0.8543E+02
   9.010  0.1595E+02  0.8559E+02
   9.020  0.1631E+02  0.8575E+02
   9.030  0.1653E+02  0.8592E+02
   9.040  0.1651E+02  0.8609E+02
   9.050  0.1676E+02  0.8625E+02
   9.060  0.1663E+02  0.8642E+02
   9.070  0.1665E+02  0.8659E+02
   9.080  0.1689E+02  0.8675E+02
   9.090  0.1689E+02  0.8692E+02
   9.100  0.1679E+02  0.8709E+02
   9.110  0.1666E+02  0.8729E+02
   9.120  0.1644E+02  0.8749E+02
   9.130  0.1657E+02  0.8766E+02
   9.140  0.1826E+02  0.8785E+02
   9.150  0.1612E+02  0.8802E+02
   9.160  0.1604E+02  0.8818E+02
   9.170  0.1703E+02  0.8836E+02
   9.180  0.1538E+02  0.8852E+02
   9.190  0.1591E+02  0.8868E+02
   9.200  0.1543E+02  0.8883E+02
   9.210  0.1501E+02  0.8898E+02
   9.220  0.1439E+02  0.8913E+02
   9.230  0.1411E+02  0.8928E+02
   9.240  0.1432E+02  0.8942E+02
   9.250  0.1479E+02  0.8957E+02
   9.260  0.1487E+02  0.8971E+02
   9.270  0.1468E+02  0.8987E+02
   9.280  0.1448E+02  0.9002E+02
   9.290  0.1482E+02  0.9016E+02
   9.300  0.1569E+02  0.9032E+02
   9.310  0.1515E+02  0.9047E+02
   9.320  0.1455E+02  0.9062E+02
   9.330  0.1400E+02  0.9076E+02
   9.340  0.1377E+02  0.9090E+02
   9.350  0.1349E+02  0.9104E+02
   9.360  0.1317E+02  0.9118E+02
   9.370  0.1326E+02  0.9131E+02
   9.380  0.1313E+02  0.9144E+02
   9.390  0.1380E+02  0.9158E+02
   9.400  0.1404E+02  0.9172E+02
   9.410  0.1521E+02  0.9187E+02
   9.420  0.1492E+02  0.9202E+02
   9.430  0.1430E+02  0.9217E+02
   9.440  0.1635E+02  0.9232E+02
   9.450  0.1720E+02  0.9249E+02
   9.460  0.1694E+02  0.9266E+02
   9.470  0.1885E+02  0.9284E+02
   9.480  0.1825E+02  0.9303E+02
   9.490  0.1513E+02  0.9319E+02
   9.500  0.1432E+02  0.9333E+02
   9.510  0.1346E+02  0.9348E+02
   9.520  0.1653E+02  0.9364E+02
   9.530  0.1341E+02  0.9378E+02
   9.540  0.1315E+02  0.9391E+02
   9.550  0.1382E+02  0.9406E+02
   9.560  0.1232E+02  0.9420E+02
   9.570  0.1244E+02  0.9432E+02
   9.580  0.1155E+02  0.9444E+02
   9.590  0.1165E+02  0.9456E+02
   9.600  0.1179E+02  0.9468E+02
   9.610  0.1425E+02  0.9481E+02
   9.620  0.1948E+02  0.9501E+02
   9.630  0.2050E+02  0.9522E+02
   9.640  0.1642E+02  0.9540E+02
   9.650  0.1917E+02  0.9559E+02
   9.660  0.2616E+02  0.9580E+02
   9.670  0.2032E+02  0.9602E+02
   9.680  0.2069E+02  0.9624E+02
   9.690  0.1762E+02  0.9643E+02
   9.700  0.1664E+02  0.9661E+02
   9.710  0.1622E+02  0.9677E+02
   9.720  0.1592E+02  0.9693E+02
   9.730  0.1626E+02  0.9709E+02
   9.740  0.1792E+02  0.9726E+02
   9.750  0.1876E+02  0.9743E+02
   9.760  0.1857E+02  0.9763E+02
   9.770  0.1566E+02  0.9781E+02
   9.780  0.1513E+02  0.9797E+02
   9.790  0.1411E+02  0.9812E+02
   9.800  0.1324E+02  0.9826E+02
   9.810  0.1285E+02  0.9839E+02
   9.820  0.1262E+02  0.9852E+02
   9.830  0.1341E+02  0.9865E+02
   9.840  0.2113E+02  0.9879E+02
   9.850  0.1173E+02  0.9893E+02
   9.860  0.1154E+02  0.9905E+02
   9.870  0.9913E+01  0.9916E+02
   9.880  0.9374E+01  0.9925E+02
   9.890  0.8920E+01  0.9934E+02
   9.900  0.8352E+01  0.9943E+02
   9.910  0.8461E+01  0.9952E+02
   9.920  0.8429E+01  0.9960E+02
   9.930  0.8467E+01  0.9969E+02
   9.940  0.8880E+01  0.9977E+02
   9.950  0.8854E+01  0.9986E+02
   9.960  0.9160E+01  0.9996E+02
   9.970  0.9439E+01  0.1000E+03
   9.980  0.7765E+01  0.1002E+03
   9.990  0.7255E+01  0.1002E+03
  10.000  0.6269E+01  0.1003E+03
  10.010  0.6820E+01  0.1004E+03
  10.020  0.6971E+01  0.1005E+03
  10.030  0.6928E+01  0.1005E+03
  10.040  0.1154E+02  0.1006E+03
  10.050  0.1133E+02  0.1007E+03
  10.060  0.1463E+02  0.1009E+03
  10.070  0.1470E+02  0.1010E+03
  10.080  0.1758E+02  0.1012E+03
  10.090  0.1761E+02  0.1014E+03
  10.100  0.2018E+02  0.1016E+03
  10.110  0.1952E+02  0.1018E+03
  10.120  0.1864E+02  0.1020E+03
  10.130  0.1598E+02  0.1021E+03
  10.140  0.2511E+03  0.1023E+03
  10.150  0.9928E+01  0.1025E+03
  10.160  0.9340E+01  0.1026E+03
  10.170  0.9935E+01  0.1026E+03
  10.180  0.9487E+01  0.1027E+03
  10.190  0.9888E+01  0.1028E+03
  10.200  0.9412E+01  0.1029E+03
  10.210  0.8803E+01  0.1030E+03
  10.220  0.1015E+02  0.1031E+03
  10.230  0.8255E+01  0.1032E+03
  10.240  0.8333E+01  0.1033E+03
  10.250  0.8392E+01  0.1034E+03
  10.260  0.8615E+01  0.1035E+03
  10.270  0.7306E+01  0.1035E+03
  10.280  0.5604E+01  0.1036E+03
  10.290  0.5832E+01  0.1037E+03
  10.300  0.5908E+01  0.1037E+03
  10.310  0.5996E+01  0.1038E+03
  10.320  0.6130E+01  0.1038E+03
  10.330  0.6311E+01  0.1039E+03
  10.340  0.6542E+01  0.1040E+03
  10.350  0.8294E+01  0.1041E+03
  10.360  0.1056E+02  0.1041E+03
  10.370  0.1042E+02  0.1043E+03
  10.380  0.1139E+02  0.1044E+03
  10.390  0.9128E+01  0.1045E+03
  10.400  0.8777E+01  0.1046E+03
  10.410  0.1487E+02  0.1047E+03
  10.420  0.6737E+01  0.1048E+03
  10.430  0.5738E+01  0.1048E+03
  10.440  0.5305E+01  0.1049E+03
  10.450  0.5292E+01  0.1050E+03
  10.460  0.5283E+01  0.1050E+03
  10.470  0.5648E+01  0.1051E+03
  10.480  0.5696E+01  0.1051E+03
  10.490  0.5805E+01  0.1052E+03
  10.500  0.5166E+01  0.1052E+03
  10.510  0.5028E+01  0.1053E+03
  10.520  0.4862E+01  0.1053E+03
  10.530  0.4758E+01  0.1054E+03
  10.540  0.4656E+01  0.1054E+03
  10.550  0.4933E+01  0.1055E+03
  10.560  0.4075E+01  0.1056E+03
  10.570  0.3523E+01  0.1056E+03
  10.580  0.3509E+01  0.1056E+03
  10.590  0.3492E+01  0.1057E+03
  10.600  0.3513E+01  0.1057E+03
  10.610  0.3376E+01  0.1057E+03
  10.620  0.3331E+01  0.1058E+03
  10.630  0.3286E+01  0.1058E+03
  10.640  0.3235E+01  0.1058E+03
  10.650  0.3165E+01  0.1059E+03
  10.660  0.3536E+01  0.1059E+03
  10.670  0.3595E+01  0.1059E+03
  10.680  0.3241E+01  0.1060E+03
  10.690  0.3035E+01  0.1060E+03
  10.700  0.3003E+01  0.1060E+03
  10.710  0.2990E+01  0.1061E+03
  10.720  0.2992E+01  0.1061E+03
  10.730  0.2995E+01  0.1061E+03
  10.740  0.2998E+01  0.1062E+03
  10.750  0.2973E+01  0.1062E+03
  10.760  0.3019E+01  0.1062E+03
  10.770  0.3090E+01  0.1062E+03
  10.780  0.3043E+01  0.1063E+03
  10.790  0.2995E+01  0.1063E+03
  10.800  0.2946E+01  0.1063E+03
  10.810  0.3016E+01  0.1064E+03
  10.820  0.2941E+01  0.1064E+03
  10.830  0.2867E+01  0.1064E+03
  10.840  0.2440E+01  0.1065E+03
  10.850  0.2432E+01  0.1065E+03
  10.860  0.2425E+01  0.1065E+03
  10.870  0.2418E+01  0.1065E+03
  10.880  0.2411E+01  0.1066E+03
  10.890  0.2404E+01  0.1066E+03
  10.900  0.2396E+01  0.1066E+03
  10.910  0.2389E+01  0.1066E+03
  10.920  0.2382E+01  0.1067E+03
  10.930  0.2375E+01  0.1067E+03
  10.940  0.2368E+01  0.1067E+03
  10.950  0.2361E+01  0.1067E+03
  10.960  0.2329E+01  0.1067E+03
  10.970  0.2296E+01  0.1068E+03
  10.980  0.2254E+01  0.1068E+03
  10.990  0.2233E+01  0.1068E+03
  11.000  0.2225E+01  0.1068E+03
  11.010  0.2217E+01  0.1069E+03
  11.020  0.2209E+01  0.1069E+03
  11.030  0.2201E+01  0.1069E+03
  11.040  0.2193E+01  0.1069E+03
  11.050  0.2185E+01  0.1069E+03
  11.060  0.2178E+01  0.1070E+03
  11.070  0.2158E+01  0.1070E+03
  11.080  0.2142E+01  0.1070E+03
  11.090  0.2134E+01  0.1070E+03
  11.100  0.2127E+01  0.1071E+03
  11.110  0.2120E+01  0.1071E+03
  11.120  0.2112E+01  0.1071E+03
  11.130  0.2105E+01  0.1071E+03
  11.140  0.2098E+01  0.1071E+03
  11.150  0.2090E+01  0.1072E+03
  11.160  0.2075E+01  0.1072E+03
  11.170  0.2054E+01  0.1072E+03
  11.180  0.2030E+01  0.1072E+03
  11.190  0.2008E+01  0.1072E+03
  11.200  0.1984E+01  0.1073E+03
  11.210  0.1973E+01  0.1073E+03
  11.220  0.1968E+01  0.1073E+03
  11.230  0.1962E+01  0.1073E+03
  11.240  0.1955E+01  0.1073E+03
  11.250  0.1948E+01  0.1074E+03
  11.260  0.1941E+01  0.1074E+03
  11.270  0.1934E+01  0.1074E+03
  11.280  0.1927E+01  0.1074E+03
  11.290  0.1919E+01  0.1074E+03
  11.300  0.1911E+01  0.1075E+03
  11.310  0.1902E+01  0.1075E+03
  11.320  0.1896E+01  0.1075E+03
  11.330  0.1891E+01  0.1075E+03
  11.340  0.1886E+01  0.1075E+03
  11.350  0.1881E+01  0.1076E+03
  11.360  0.1877E+01  0.1076E+03
  11.370  0.1871E+01  0.1076E+03
  11.380  0.1865E+01  0.1076E+03
  11.390  0.1858E+01  0.1076E+03
  11.400  0.1851E+01  0.1076E+03
  11.410  0.1844E+01  0.1077E+03
  11.420  0.1837E+01  0.1077E+03
  11.430  0.1830E+01  0.1077E+03
  11.440  0.1823E+01  0.1077E+03
  11.450  0.1816E+01  0.1077E+03
  11.460  0.1810E+01  0.1078E+03
  11.470  0.1803E+01  0.1078E+03
  11.480  0.1796E+01  0.1078E+03
  11.490  0.1789E+01  0.1078E+03
  11.500  0.1782E+01  0.1078E+03
  11.510  0.1775E+01  0.1078E+03
  11.520  0.1769E+01  0.1079E+03
  11.530  0.1762E+01  0.1079E+03
  11.540  0.1755E+01  0.1079E+03
  11.550  0.1748E+01  0.1079E+03
  11.560  0.1741E+01  0.1079E+03
  11.570  0.1734E+01  0.1080E+03
  11.580  0.1727E+01  0.1080E+03
  11.590  0.1719E+01  0.1080E+03
  11.600  0.1712E+01  0.1080E+03
  11.610  0.1705E+01  0.1080E+03
  11.620  0.1698E+01  0.1080E+03
  11.630  0.1691E+01  0.1081E+03
  11.640  0.1684E+01  0.1081E+03
  11.650  0.1677E+01  0.1081E+03
  11.660  0.1669E+01  0.1081E+03
  11.670  0.1663E+01  0.1081E+03
  11.680  0.1660E+01  0.1081E+03
  11.690  0.1659E+01  0.1082E+03
  11.700  0.1658E+01  0.1082E+03
  11.710  0.1657E+01  0.1082E+03
  11.720  0.1656E+01  0.1082E+03
  11.730  0.1655E+01  0.1082E+03
  11.740  0.1654E+01  0.1082E+03
  11.750  0.1653E+01  0.1083E+03
  11.760  0.1652E+01  0.1083E+03
  11.770  0.1651E+01  0.1083E+03
  11.780  0.1649E+01  0.1083E+03
  11.790  0.1648E+01  0.1083E+03
  11.800  0.1647E+01  0.1083E+03
  11.810  0.1646E+01  0.1084E+03
  11.820  0.1650E+01  0.1084E+03
  11.830  0.1655E+01  0.1084E+03
  11.840  0.1661E+01  0.1084E+03
  11.850  0.1667E+01  0.1084E+03
  11.860  0.1673E+01  0.1084E+03
  11.870  0.1678E+01  0.1085E+03
  11.880  0.1684E+01  0.1085E+03
  11.890  0.1690E+01  0.1085E+03
  11.900  0.1695E+01  0.1085E+03
  11.910  0.1701E+01  0.1085E+03
  11.920  0.1706E+01  0.1085E+03
  11.930  0.1712E+01  0.1086E+03
  11.940  0.1718E+01  0.1086E+03
  11.950  0.1723E+01  0.1086E+03
  11.960  0.1729E+01  0.1086E+03
  11.970  0.1735E+01  0.1086E+03
  11.980  0.1740E+01  0.1086E+03
  11.990  0.1824E+01  0.1087E+03
  12.000  0.2004E+01  0.1087E+03
  12.010  0.2048E+01  0.1087E+03
  12.020  0.2034E+01  0.1087E+03
  12.030  0.2023E+01  0.1087E+03
  12.040  0.2018E+01  0.1088E+03
  12.050  0.2017E+01  0.1088E+03
  12.060  0.2018E+01  0.1088E+03
  12.070  0.2022E+01  0.1088E+03
  12.080  0.2034E+01  0.1088E+03
  12.090  0.2058E+01  0.1089E+03
  12.100  0.2060E+01  0.1089E+03
  12.110  0.2092E+01  0.1089E+03
  12.120  0.2190E+01  0.1089E+03
  12.130  0.2212E+01  0.1089E+03
  12.140  0.2228E+01  0.1090E+03
  12.150  0.2244E+01  0.1090E+03
  12.160  0.2260E+01  0.1090E+03
  12.170  0.2280E+01  0.1090E+03
  12.180  0.2315E+01  0.1091E+03
  12.190  0.2356E+01  0.1091E+03
  12.200  0.2333E+01  0.1091E+03
  12.210  0.2299E+01  0.1091E+03
  12.220  0.2265E+01  0.1092E+03
  12.230  0.2232E+01  0.1092E+03
  12.240  0.2200E+01  0.1092E+03
  12.250  0.2168E+01  0.1092E+03
  12.260  0.2137E+01  0.1092E+03
  12.270  0.2086E+01  0.1093E+03
  12.280  0.2064E+01  0.1093E+03
  12.290  0.2042E+01  0.1093E+03
  12.300  0.2110E+01  0.1093E+03
  12.310  0.2108E+01  0.1093E+03
  12.320  0.2105E+01  0.1094E+03
  12.330  0.2101E+01  0.1094E+03
  12.340  0.2096E+01  0.1094E+03
  12.350  0.2090E+01  0.1094E+03
  12.360  0.2083E+01  0.1095E+03
  12.370  0.2074E+01  0.1095E+03
  12.380  0.2065E+01  0.1095E+03
  12.390  0.2079E+01  0.1095E+03
  12.400  0.2066E+01  0.1095E+03
  12.410  0.2053E+01  0.1096E+03
  12.420  0.2038E+01  0.1096E+03
  12.430  0.2023E+01  0.1096E+03
  12.440  0.2006E+01  0.1096E+03
  12.450  0.2044E+01  0.1096E+03
  12.460  0.2040E+01  0.1097E+03
  12.470  0.2066E+01  0.1097E+03
  12.480  0.1979E+01  0.1097E+03
  12.490  0.2010E+01  0.1097E+03
  12.500  0.2033E+01  0.1097E+03
  12.510  0.1759E+01  0.1098E+03
  12.520  0.1781E+01  0.1098E+03
  12.530  0.1908E+01  0.1098E+03
  12.540  0.2076E+01  0.1099E+03
  12.550  0.2020E+01  0.1099E+03
  12.560  0.1838E+01  0.1099E+03
  12.570  0.1728E+01  0.1099E+03
  12.580  0.1621E+01  0.1099E+03
  12.590  0.9386E+01  0.1100E+03
  12.600  0.9239E+00  0.1100E+03
  12.610  0.6937E+00  0.1100E+03
  12.620  0.0000E+00  0.1100E+03
  12.630  0.0000E+00  0.1100E+03
  12.640  0.0000E+00  0.1100E+03
  12.650  0.0000E+00  0.1100E+03
  12.660  0.0000E+00  0.1100E+03
  12.670  0.0000E+00  0.1100E+03
  12.680  0.0000E+00  0.1100E+03
  12.690  0.0000E+00  0.1100E+03
  12.700  0.0000E+00  0.1100E+03
  12.710  0.0000E+00  0.1100E+03
  12.720  0.0000E+00  0.1100E+03
  12.730  0.0000E+00  0.1100E+03
  12.740  0.0000E+00  0.1100E+03
  12.750  0.0000E+00  0.1100E+03
  12.760  0.0000E+00  0.1100E+03
  12.770  0.0000E+00  0.1100E+03
  12.780  0.0000E+00  0.1100E+03
  12.790  0.0000E+00  0.1100E+03
  12.800  0.0000E+00  0.1100E+03
  12.810  0.0000E+00  0.1100E+03
  12.820  0.0000E+00  0.1100E+03
  12.830  0.0000E+00  0.1100E+03
  12.840  0.0000E+00  0.1100E+03
  12.850  0.0000E+00  0.1100E+03
  12.860  0.0000E+00  0.1100E+03
  12.870  0.0000E+00  0.1100E+03
  12.880  0.0000E+00  0.1100E+03
  12.890  0.0000E+00  0.1100E+03
  12.900  0.0000E+00  0.1100E+03
  12.910  0.0000E+00  0.1100E+03
  12.920  0.0000E+00  0.1100E+03
  12.930  0.0000E+00  0.1100E+03
  12.940  0.0000E+00  0.1100E+03
  12.950  0.0000E+00  0.1100E+03
  12.960  0.0000E+00  0.1100E+03
  12.970  0.0000E+00  0.1100E+03
  12.980  0.0000E+00  0.1100E+03
  12.990  0.0000E+00  0.1100E+03
  13.000  0.0000E+00  0.1100E+03
  13.010  0.0000E+00  0.1100E+03
  13.020  0.0000E+00  0.1100E+03
  13.030  0.0000E+00  0.1100E+03
  13.040  0.0000E+00  0.1100E+03
  13.050  0.0000E+00  0.1100E+03
  13.060  0.0000E+00  0.1100E+03
  13.070  0.0000E+00  0.1100E+03
  13.080  0.0000E+00  0.1100E+03
  13.090  0.0000E+00  0.1100E+03
  13.100  0.0000E+00  0.1100E+03
  13.110  0.0000E+00  0.1100E+03
  13.120  0.0000E+00  0.1100E+03
  13.130  0.0000E+00  0.1100E+03
  13.140  0.0000E+00  0.1100E+03
  13.150  0.0000E+00  0.1100E+03
  13.160  0.0000E+00  0.1100E+03
  13.170  0.0000E+00  0.1100E+03
  13.180  0.0000E+00  0.1100E+03
  13.190  0.0000E+00  0.1100E+03
  13.200  0.1126E+01  0.1100E+03
  13.210  0.8787E+00  0.1100E+03
  13.220  0.1248E+01  0.1100E+03
  13.230  0.2613E+00  0.1100E+03
  13.240  0.2666E+00  0.1100E+03
  13.250  0.2719E+00  0.1100E+03
  13.260  0.2772E+00  0.1100E+03
  13.270  0.2824E+00  0.1100E+03
  13.280  0.2877E+00  0.1101E+03
  13.290  0.2930E+00  0.1101E+03
  13.300  0.2982E+00  0.1101E+03
  13.310  0.3035E+00  0.1101E+03
  13.320  0.3088E+00  0.1101E+03
  13.330  0.3140E+00  0.1101E+03
  13.340  0.3193E+00  0.1101E+03
  13.350  0.3246E+00  0.1101E+03
  13.360  0.3298E+00  0.1101E+03
  13.370  0.3351E+00  0.1101E+03
  13.380  0.3404E+00  0.1101E+03
  13.390  0.3456E+00  0.1101E+03
  13.400  0.3509E+00  0.1101E+03
  13.410  0.3562E+00  0.1101E+03
  13.420  0.3615E+00  0.1101E+03
  13.430  0.3667E+00  0.1101E+03
  13.440  0.3720E+00  0.1101E+03
  13.450  0.3773E+00  0.1101E+03
  13.460  0.3825E+00  0.1101E+03
  13.470  0.3878E+00  0.1101E+03
  13.480  0.3931E+00  0.1101E+03
  13.490  0.3983E+00  0.1101E+03
  13.500  0.4036E+00  0.1101E+03
  13.510  0.6242E+00  0.1101E+03
  13.520  0.6427E+00  0.1101E+03
  13.530  0.6615E+00  0.1101E+03
  13.540  0.6806E+00  0.1102E+03
  13.550  0.6273E+00  0.1102E+03
  13.560  0.6423E+00  0.1102E+03
  13.570  0.6574E+00  0.1102E+03
  13.580  0.6727E+00  0.1102E+03
  13.590  0.6881E+00  0.1102E+03
  13.600  0.7037E+00  0.1102E+03
  13.610  0.7195E+00  0.1102E+03
  13.620  0.7447E+00  0.1102E+03
  13.630  0.7532E+00  0.1102E+03
  13.640  0.7649E+00  0.1102E+03
  13.650  0.7785E+00  0.1102E+03
  13.660  0.7938E+00  0.1102E+03
  13.670  0.8095E+00  0.1102E+03
  13.680  0.8250E+00  0.1103E+03
  13.690  0.7572E+00  0.1103E+03
  13.700  0.7640E+00  0.1103E+03
  13.710  0.7768E+00  0.1103E+03
  13.720  0.7896E+00  0.1103E+03
  13.730  0.8024E+00  0.1103E+03
  13.740  0.8151E+00  0.1103E+03
  13.750  0.8279E+00  0.1103E+03
  13.760  0.8308E+00  0.1103E+03
  13.770  0.8322E+00  0.1103E+03
  13.780  0.8342E+00  0.1103E+03
  13.790  0.8277E+00  0.1104E+03
  13.800  0.8347E+00  0.1104E+03
  13.810  0.8418E+00  0.1104E+03
  13.820  0.8489E+00  0.1104E+03
  13.830  0.8560E+00  0.1104E+03
  13.840  0.8631E+00  0.1104E+03
  13.850  0.8701E+00  0.1104E+03
  13.860  0.8772E+00  0.1104E+03
  13.870  0.8843E+00  0.1104E+03
  13.880  0.8914E+00  0.1104E+03
  13.890  0.8985E+00  0.1104E+03
  13.900  0.9056E+00  0.1104E+03
  13.910  0.9126E+00  0.1105E+03
  13.920  0.9197E+00  0.1105E+03
  13.930  0.1245E+01  0.1105E+03
  13.940  0.1285E+01  0.1105E+03
  13.950  0.1326E+01  0.1105E+03
  13.960  0.1499E+01  0.1105E+03
  13.970  0.1560E+01  0.1105E+03
  13.980  0.2393E+01  0.1106E+03
  13.990  0.1394E+01  0.1106E+03
  14.000  0.1414E+01  0.1106E+03
  14.010  0.1434E+01  0.1106E+03
  14.020  0.1454E+01  0.1106E+03
  14.030  0.1475E+01  0.1106E+03
  14.040  0.1495E+01  0.1106E+03
  14.050  0.1519E+01  0.1107E+03
  14.060  0.1545E+01  0.1107E+03
  14.070  0.1573E+01  0.1107E+03
  14.080  0.1603E+01  0.1107E+03
  14.090  0.1636E+01  0.1107E+03
  14.100  0.1669E+01  0.1107E+03
  14.110  0.1705E+01  0.1108E+03
  14.120  0.1743E+01  0.1108E+03
  14.130  0.1784E+01  0.1108E+03
  14.140  0.1823E+01  0.1108E+03
  14.150  0.1863E+01  0.1108E+03
  14.160  0.1902E+01  0.1108E+03
  14.170  0.1940E+01  0.1109E+03
  14.180  0.1977E+01  0.1109E+03
  14.190  0.2015E+01  0.1109E+03
  14.200  0.2053E+01  0.1109E+03
  14.210  0.2091E+01  0.1109E+03
  14.220  0.2129E+01  0.1110E+03
  14.230  0.2166E+01  0.1110E+03
  14.240  0.2204E+01  0.1110E+03
  14.250  0.2220E+01  0.1110E+03
  14.260  0.2174E+01  0.1111E+03
  14.270  0.2217E+01  0.1111E+03
  14.280  0.2260E+01  0.1111E+03
  14.290  0.2513E+01  0.1111E+03
  14.300  0.2591E+01  0.1112E+03
  14.310  0.2672E+01  0.1112E+03
  14.320  0.2742E+01  0.1112E+03
  14.330  0.2731E+01  0.1112E+03
  14.340  0.2793E+01  0.1113E+03
  14.350  0.2827E+01  0.1113E+03
  14.360  0.2885E+01  0.1113E+03
  14.370  0.2944E+01  0.1113E+03
  14.380  0.3004E+01  0.1114E+03
  14.390  0.3065E+01  0.1114E+03
  14.400  0.3127E+01  0.1114E+03
  14.410  0.3190E+01  0.1115E+03
  14.420  0.3254E+01  0.1115E+03
  14.430  0.3437E+01  0.1115E+03
  14.440  0.3610E+01  0.1116E+03
  14.450  0.3717E+01  0.1116E+03
  14.460  0.3791E+01  0.1116E+03
  14.470  0.3853E+01  0.1117E+03
  14.480  0.3838E+01  0.1117E+03
  14.490  0.3839E+01  0.1118E+03
  14.500  0.3815E+01  0.1118E+03
  14.510  0.3774E+01  0.1118E+03
  14.520  0.3741E+01  0.1119E+03
  14.530  0.3708E+01  0.1119E+03
  14.540  0.3650E+01  0.1120E+03
  14.550  0.3591E+01  0.1120E+03
  14.560  0.3564E+01  0.1120E+03
  14.570  0.3531E+01  0.1121E+03
  14.580  0.3479E+01  0.1121E+03
  14.590  0.3364E+01  0.1121E+03
  14.600  0.3356E+01  0.1122E+03
  14.610  0.3358E+01  0.1122E+03
  14.620  0.3372E+01  0.1122E+03
  14.630  0.3414E+01  0.1123E+03
  14.640  0.3423E+01  0.1123E+03
  14.650  0.3438E+01  0.1123E+03
  14.660  0.3428E+01  0.1124E+03
  14.670  0.3387E+01  0.1124E+03
  14.680  0.3373E+01  0.1124E+03
  14.690  0.3352E+01  0.1125E+03
  14.700  0.3326E+01  0.1125E+03
  14.710  0.3300E+01  0.1125E+03
  14.720  0.3302E+01  0.1126E+03
  14.730  0.3266E+01  0.1126E+03
  14.740  0.3214E+01  0.1126E+03
  14.750  0.3493E+01  0.1127E+03
  14.760  0.3392E+01  0.1127E+03
  14.770  0.3156E+01  0.1127E+03
  14.780  0.3086E+01  0.1128E+03
  14.790  0.3021E+01  0.1128E+03
  14.800  0.2960E+01  0.1128E+03
  14.810  0.3172E+01  0.1129E+03
  14.820  0.3125E+01  0.1129E+03
  14.830  0.2733E+01  0.1129E+03
  14.840  0.2747E+01  0.1130E+03
  14.850  0.2705E+01  0.1130E+03
  14.860  0.2732E+01  0.1130E+03
  14.870  0.2772E+01  0.1130E+03
  14.880  0.2812E+01  0.1131E+03
  14.890  0.2853E+01  0.1131E+03
  14.900  0.2893E+01  0.1131E+03
  14.910  0.2934E+01  0.1132E+03
  14.920  0.3000E+01  0.1132E+03
  14.930  0.3043E+01  0.1132E+03
  14.940  0.3086E+01  0.1132E+03
  14.950  0.3060E+01  0.1133E+03
  14.960  0.3100E+01  0.1133E+03
  14.970  0.3029E+01  0.1133E+03
  14.980  0.2982E+01  0.1134E+03
  14.990  0.2841E+01  0.1134E+03
  15.000  0.2558E+01  0.1134E+03
  15.010  0.2411E+01  0.1135E+03
  15.020  0.2312E+01  0.1135E+03
  15.030  0.2208E+01  0.1135E+03
  15.040  0.2132E+01  0.1135E+03
  15.050  0.2075E+01  0.1135E+03
  15.060  0.2052E+01  0.1136E+03
  15.070  0.2195E+01  0.1136E+03
  15.080  0.2242E+01  0.1136E+03
  15.090  0.2171E+01  0.1136E+03
  15.100  0.2017E+01  0.1136E+03
  15.110  0.1905E+01  0.1137E+03
  15.120  0.1864E+01  0.1137E+03
  15.130  0.1966E+01  0.1137E+03
  15.140  0.1945E+01  0.1137E+03
  15.150  0.1878E+01  0.1138E+03
  15.160  0.1855E+01  0.1138E+03
  15.170  0.1763E+01  0.1138E+03
  15.180  0.1748E+01  0.1138E+03
  15.190  0.1734E+01  0.1138E+03
  15.200  0.1720E+01  0.1138E+03
  15.210  0.1706E+01  0.1139E+03
  15.220  0.1693E+01  0.1139E+03
  15.230  0.1680E+01  0.1139E+03
  15.240  0.1667E+01  0.1139E+03
  15.250  0.1655E+01  0.1139E+03
  15.260  0.1632E+01  0.1139E+03
  15.270  0.1605E+01  0.1140E+03
  15.280  0.1594E+01  0.1140E+03
  15.290  0.1583E+01  0.1140E+03
  15.300  0.1573E+01  0.1140E+03
  15.310  0.1563E+01  0.1140E+03
  15.320  0.1553E+01  0.1140E+03
  15.330  0.1543E+01  0.1141E+03
  15.340  0.1550E+01  0.1141E+03
  15.350  0.1557E+01  0.1141E+03
  15.360  0.1569E+01  0.1141E+03
  15.370  0.1487E+01  0.1141E+03
  15.380  0.1515E+01  0.1141E+03
  15.390  0.1591E+01  0.1141E+03
  15.400  0.1953E+01  0.1142E+03
  15.410  0.2180E+01  0.1142E+03
  15.420  0.2617E+01  0.1142E+03
  15.430  0.2800E+01  0.1142E+03
  15.440  0.3035E+01  0.1143E+03
  15.450  0.3272E+01  0.1143E+03
  15.460  0.3507E+01  0.1143E+03
  15.470  0.3846E+01  0.1144E+03
  15.480  0.4070E+01  0.1144E+03
  15.490  0.4388E+01  0.1145E+03
  15.500  0.4341E+01  0.1145E+03
  15.510  0.4699E+01  0.1146E+03
  15.520  0.4946E+01  0.1146E+03
  15.530  0.5154E+01  0.1147E+03
  15.540  0.5346E+01  0.1147E+03
  15.550  0.5522E+01  0.1148E+03
  15.560  0.5679E+01  0.1148E+03
  15.570  0.6085E+01  0.1149E+03
  15.580  0.5654E+01  0.1149E+03
  15.590  0.5867E+01  0.1150E+03
  15.600  0.9047E+01  0.1151E+03
  15.610  0.8472E+01  0.1152E+03
  15.620  0.7286E+01  0.1153E+03
  15.630  0.6929E+01  0.1153E+03
  15.640  0.6281E+01  0.1154E+03
  15.650  0.5989E+01  0.1155E+03
  15.660  0.5695E+01  0.1155E+03
  15.670  0.5405E+01  0.1156E+03
  15.680  0.5126E+01  0.1156E+03
  15.690  0.4821E+01  0.1157E+03
  15.700  0.4491E+01  0.1157E+03
  15.710  0.3214E+01  0.1158E+03
  15.720  0.2031E+01  0.1158E+03
  15.730  0.1964E+01  0.1158E+03
  15.740  0.1933E+01  0.1158E+03
  15.750  0.1939E+01  0.1159E+03
  15.760  0.1946E+01  0.1159E+03
  15.770  0.1954E+01  0.1159E+03
  15.780  0.1962E+01  0.1159E+03
  15.790  0.1972E+01  0.1159E+03
  15.800  0.1983E+01  0.1160E+03
  15.810  0.1994E+01  0.1160E+03
  15.820  0.2007E+01  0.1160E+03
  15.830  0.2021E+01  0.1160E+03
  15.840  0.2318E+01  0.1160E+03
  15.850  0.2698E+01  0.1161E+03
  15.860  0.3778E+01  0.1161E+03
  15.870  0.3728E+01  0.1161E+03
  15.880  0.3595E+01  0.1162E+03
  15.890  0.3467E+01  0.1162E+03
  15.900  0.3346E+01  0.1162E+03
  15.910  0.3237E+01  0.1163E+03
  15.920  0.3127E+01  0.1163E+03
  15.930  0.3049E+01  0.1163E+03
  15.940  0.2976E+01  0.1164E+03
  15.950  0.2912E+01  0.1164E+03
  15.960  0.2351E+01  0.1164E+03
  15.970  0.6293E+01  0.1165E+03
  15.980  0.2936E+01  0.1165E+03
  15.990  0.2982E+01  0.1165E+03
  16.000  0.3054E+01  0.1166E+03
  16.010  0.2981E+01  0.1166E+03
  16.020  0.2995E+01  0.1166E+03
  16.030  0.3009E+01  0.1167E+03
  16.040  0.3026E+01  0.1167E+03
  16.050  0.3044E+01  0.1167E+03
  16.060  0.2972E+01  0.1167E+03
  16.070  0.2981E+01  0.1168E+03
  16.080  0.2991E+01  0.1168E+03
  16.090  0.3146E+01  0.1168E+03
  16.100  0.3179E+01  0.1169E+03
  16.110  0.3220E+01  0.1169E+03
  16.120  0.3228E+01  0.1169E+03
  16.130  0.3285E+01  0.1170E+03
  16.140  0.4621E+01  0.1170E+03
  16.150  0.3864E+01  0.1171E+03
  16.160  0.3866E+01  0.1171E+03
  16.170  0.3199E+01  0.1171E+03
  16.180  0.3380E+01  0.1172E+03
  16.190  0.3482E+01  0.1172E+03
  16.200  0.3583E+01  0.1172E+03
  16.210  0.3709E+01  0.1173E+03
  16.220  0.3471E+01  0.1173E+03
  16.230  0.3376E+01  0.1173E+03
  16.240  0.3270E+01  0.1174E+03
  16.250  0.3199E+01  0.1174E+03
  16.260  0.3140E+01  0.1174E+03
  16.270  0.3089E+01  0.1175E+03
  16.280  0.3041E+01  0.1175E+03
  16.290  0.2934E+01  0.1175E+03
  16.300  0.2890E+01  0.1176E+03
  16.310  0.2848E+01  0.1176E+03
  16.320  0.2860E+01  0.1176E+03
  16.330  0.2857E+01  0.1176E+03
  16.340  0.2850E+01  0.1177E+03
  16.350  0.2841E+01  0.1177E+03
  16.360  0.2829E+01  0.1177E+03
  16.370  0.2943E+01  0.1178E+03
  16.380  0.2941E+01  0.1178E+03
  16.390  0.2941E+01  0.1178E+03
  16.400  0.2847E+01  0.1179E+03
  16.410  0.2850E+01  0.1179E+03
  16.420  0.3123E+01  0.1179E+03
  16.430  0.3170E+01  0.1179E+03
  16.440  0.3222E+01  0.1180E+03
  16.450  0.3277E+01  0.1180E+03
  16.460  0.3282E+01  0.1180E+03
  16.470  0.3311E+01  0.1181E+03
  16.480  0.3380E+01  0.1181E+03
  16.490  0.3454E+01  0.1181E+03
  16.500  0.3532E+01  0.1182E+03
  16.510  0.3637E+01  0.1182E+03
  16.520  0.3730E+01  0.1183E+03
  16.530  0.3826E+01  0.1183E+03
  16.540  0.3962E+01  0.1183E+03
  16.550  0.4085E+01  0.1184E+03
  16.560  0.4228E+01  0.1184E+03
  16.570  0.4376E+01  0.1185E+03
  16.580  0.4472E+01  0.1185E+03
  16.590  0.4625E+01  0.1185E+03
  16.600  0.4848E+01  0.1186E+03
  16.610  0.4974E+01  0.1186E+03
  16.620  0.4927E+01  0.1187E+03
  16.630  0.4827E+01  0.1187E+03
  16.640  0.4293E+01  0.1188E+03
  16.650  0.4181E+01  0.1188E+03
  16.660  0.4181E+01  0.1189E+03
  16.670  0.4189E+01  0.1189E+03
  16.680  0.4203E+01  0.1190E+03
  16.690  0.4220E+01  0.1190E+03
  16.700  0.4241E+01  0.1190E+03
  16.710  0.4262E+01  0.1191E+03
  16.720  0.4734E+01  0.1191E+03
  16.730  0.4877E+01  0.1192E+03
  16.740  0.5018E+01  0.1192E+03
  16.750  0.5160E+01  0.1193E+03
  16.760  0.5236E+01  0.1193E+03
  16.770  0.7837E+01  0.1194E+03
  16.780  0.5334E+01  0.1195E+03
  16.790  0.5444E+01  0.1195E+03
  16.800  0.5557E+01  0.1196E+03
  16.810  0.5732E+01  0.1196E+03
  16.820  0.5715E+01  0.1197E+03
  16.830  0.5720E+01  0.1198E+03
  16.840  0.5724E+01  0.1198E+03
  16.850  0.5831E+01  0.1199E+03
  16.860  0.5834E+01  0.1199E+03
  16.870  0.5794E+01  0.1200E+03
  16.880  0.5743E+01  0.1200E+03
  16.890  0.5697E+01  0.1201E+03
  16.900  0.5703E+01  0.1202E+03
  16.910  0.5715E+01  0.1202E+03
  16.920  0.5698E+01  0.1203E+03
  16.930  0.5643E+01  0.1203E+03
  16.940  0.5817E+01  0.1204E+03
  16.950  0.5718E+01  0.1205E+03
  16.960  0.5620E+01  0.1205E+03
  16.970  0.5512E+01  0.1206E+03
  16.980  0.5355E+01  0.1206E+03
  16.990  0.5206E+01  0.1207E+03
  17.000  0.5067E+01  0.1207E+03
  17.010  0.4898E+01  0.1208E+03
  17.020  0.7687E+01  0.1208E+03
  17.030  0.5294E+01  0.1209E+03
  17.040  0.5452E+01  0.1209E+03
  17.050  0.5494E+01  0.1210E+03
  17.060  0.4982E+01  0.1211E+03
  17.070  0.4948E+01  0.1211E+03
  17.080  0.5515E+01  0.1212E+03
  17.090  0.5247E+01  0.1212E+03
  17.100  0.5316E+01  0.1213E+03
  17.110  0.5342E+01  0.1213E+03
  17.120  0.5303E+01  0.1214E+03
  17.130  0.5341E+01  0.1214E+03
  17.140  0.5440E+01  0.1215E+03
  17.150  0.5444E+01  0.1215E+03
  17.160  0.5552E+01  0.1216E+03
  17.170  0.5728E+01  0.1216E+03
  17.180  0.5821E+01  0.1217E+03
  17.190  0.5189E+01  0.1218E+03
  17.200  0.4891E+01  0.1218E+03
  17.210  0.4966E+01  0.1219E+03
  17.220  0.5213E+01  0.1219E+03
  17.230  0.5463E+01  0.1220E+03
  17.240  0.5622E+01  0.1220E+03
  17.250  0.5807E+01  0.1221E+03
  17.260  0.5980E+01  0.1221E+03
  17.270  0.6260E+01  0.1222E+03
  17.280  0.6680E+01  0.1223E+03
  17.290  0.7121E+01  0.1223E+03
  17.300  0.7837E+01  0.1224E+03
  17.310  0.7919E+01  0.1225E+03
  17.320  0.7879E+01  0.1226E+03
  17.330  0.8019E+01  0.1227E+03
  17.340  0.8192E+01  0.1227E+03
  17.350  0.8178E+01  0.1228E+03
  17.360  0.8627E+01  0.1229E+03
  17.370  0.8490E+01  0.1230E+03
  17.380  0.8210E+01  0.1231E+03
  17.390  0.8076E+01  0.1232E+03
  17.400  0.8543E+01  0.1232E+03
  17.410  0.8807E+01  0.1233E+03
  17.420  0.6958E+01  0.1234E+03
  17.430  0.7010E+01  0.1235E+03
  17.440  0.8149E+01  0.1236E+03
  17.450  0.7905E+01  0.1236E+03
  17.460  0.7772E+01  0.1237E+03
  17.470  0.7516E+01  0.1238E+03
  17.480  0.1189E+02  0.1239E+03
  17.490  0.8374E+01  0.1240E+03
  17.500  0.7517E+01  0.1241E+03
  17.510  0.6901E+01  0.1242E+03
  17.520  0.6534E+01  0.1242E+03
  17.530  0.6308E+01  0.1243E+03
  17.540  0.6167E+01  0.1244E+03
  17.550  0.6278E+01  0.1244E+03
  17.560  0.6232E+01  0.1245E+03
  17.570  0.6294E+01  0.1245E+03
  17.580  0.6369E+01  0.1246E+03
  17.590  0.6508E+01  0.1247E+03
  17.600  0.7366E+01  0.1247E+03
  17.610  0.7427E+01  0.1248E+03
  17.620  0.6356E+01  0.1249E+03
  17.630  0.6258E+01  0.1250E+03
  17.640  0.6141E+01  0.1250E+03
  17.650  0.6080E+01  0.1251E+03
  17.660  0.6057E+01  0.1251E+03
  17.670  0.6001E+01  0.1252E+03
  17.680  0.6224E+01  0.1253E+03
  17.690  0.6447E+01  0.1253E+03
  17.700  0.6647E+01  0.1254E+03
  17.710  0.7372E+01  0.1255E+03
  17.720  0.8089E+01  0.1255E+03
  17.730  0.8896E+01  0.1256E+03
  17.740  0.9121E+01  0.1257E+03
  17.750  0.9311E+01  0.1258E+03
  17.760  0.9335E+01  0.1259E+03
  17.770  0.7843E+01  0.1260E+03
  17.780  0.7373E+01  0.1261E+03
  17.790  0.6585E+01  0.1261E+03
  17.800  0.7139E+01  0.1262E+03
  17.810  0.7144E+01  0.1263E+03
  17.820  0.6890E+01  0.1264E+03
  17.830  0.7033E+01  0.1264E+03
  17.840  0.6913E+01  0.1265E+03
  17.850  0.6754E+01  0.1266E+03
  17.860  0.7125E+01  0.1266E+03
  17.870  0.7181E+01  0.1267E+03
  17.880  0.5845E+01  0.1268E+03
  17.890  0.5984E+01  0.1268E+03
  17.900  0.4952E+01  0.1269E+03
  17.910  0.5131E+01  0.1269E+03
  17.920  0.5021E+01  0.1270E+03
  17.930  0.4960E+01  0.1271E+03
  17.940  0.4611E+01  0.1271E+03
  17.950  0.4466E+01  0.1271E+03
  17.960  0.4338E+01  0.1272E+03
  17.970  0.4226E+01  0.1272E+03
  17.980  0.4234E+01  0.1273E+03
  17.990  0.4056E+01  0.1273E+03
  18.000  0.4263E+01  0.1274E+03
  18.010  0.4372E+01  0.1274E+03
  18.020  0.4464E+01  0.1274E+03
  18.030  0.4397E+01  0.1275E+03
  18.040  0.4305E+01  0.1275E+03
  18.050  0.4154E+01  0.1276E+03
  18.060  0.3936E+01  0.1276E+03
  18.070  0.3941E+01  0.1277E+03
  18.080  0.3772E+01  0.1277E+03
  18.090  0.4696E+01  0.1278E+03
  18.100  0.3779E+01  0.1278E+03
  18.110  0.2591E+01  0.1278E+03
  18.120  0.2362E+01  0.1279E+03
  18.130  0.2144E+01  0.1279E+03
  18.140  0.1936E+01  0.1279E+03
  18.150  0.1737E+01  0.1279E+03
  18.160  0.1548E+01  0.1279E+03
  18.170  0.1209E+01  0.1279E+03
  18.180  0.7517E+00  0.1280E+03
  18.190  0.6025E+00  0.1280E+03
  18.200  0.5411E+00  0.1280E+03
  18.210  0.4828E+00  0.1280E+03
  18.220  0.4276E+00  0.1280E+03
  18.230  0.3755E+00  0.1280E+03
  18.240  0.3264E+00  0.1280E+03
  18.250  0.2448E+00  0.1280E+03
  18.260  0.2202E+00  0.1280E+03
  18.270  0.1965E+00  0.1280E+03
  18.280  0.1739E+00  0.1280E+03
  18.290  0.1522E+00  0.1280E+03
  18.300  0.0000E+00  0.1280E+03
  18.310  0.0000E+00  0.1280E+03
  18.320  0.0000E+00  0.1280E+03
  18.330  0.0000E+00  0.1280E+03
  18.340  0.0000E+00  0.1280E+03
  18.350  0.0000E+00  0.1280E+03
  18.360  0.0000E+00  0.1280E+03
  18.370  0.0000E+00  0.1280E+03
  18.380  0.0000E+00  0.1280E+03
  18.390  0.0000E+00  0.1280E+03
  18.400  0.0000E+00  0.1280E+03
  18.410  0.0000E+00  0.1280E+03
  18.420  0.0000E+00  0.1280E+03
  18.430  0.0000E+00  0.1280E+03
  18.440  0.0000E+00  0.1280E+03
  18.450  0.0000E+00  0.1280E+03
  18.460  0.0000E+00  0.1280E+03
  18.470  0.0000E+00  0.1280E+03
  18.480  0.0000E+00  0.1280E+03
  18.490  0.0000E+00  0.1280E+03
  18.500  0.0000E+00  0.1280E+03
  18.510  0.0000E+00  0.1280E+03
  18.520  0.0000E+00  0.1280E+03
  18.530  0.0000E+00  0.1280E+03
  18.540  0.0000E+00  0.1280E+03
  18.550  0.0000E+00  0.1280E+03
  18.560  0.0000E+00  0.1280E+03
  18.570  0.0000E+00  0.1280E+03
  18.580  0.0000E+00  0.1280E+03
  18.590  0.0000E+00  0.1280E+03
  18.600  0.0000E+00  0.1280E+03
  18.610  0.0000E+00  0.1280E+03
  18.620  0.0000E+00  0.1280E+03
  18.630  0.0000E+00  0.1280E+03
  18.640  0.0000E+00  0.1280E+03
  18.650  0.0000E+00  0.1280E+03
  18.660  0.0000E+00  0.1280E+03
  18.670  0.0000E+00  0.1280E+03
  18.680  0.0000E+00  0.1280E+03
  18.690  0.0000E+00  0.1280E+03
  18.700  0.0000E+00  0.1280E+03
  18.710  0.0000E+00  0.1280E+03
  18.720  0.0000E+00  0.1280E+03
  18.730  0.0000E+00  0.1280E+03
  18.740  0.0000E+00  0.1280E+03
  18.750  0.0000E+00  0.1280E+03
  18.760  0.0000E+00  0.1280E+03
  18.770  0.0000E+00  0.1280E+03
  18.780  0.0000E+00  0.1280E+03
  18.790  0.0000E+00  0.1280E+03
  18.800  0.0000E+00  0.1280E+03
  18.810  0.0000E+00  0.1280E+03
  18.820  0.0000E+00  0.1280E+03
  18.830  0.0000E+00  0.1280E+03
  18.840  0.0000E+00  0.1280E+03
  18.850  0.0000E+00  0.1280E+03
  18.860  0.0000E+00  0.1280E+03
  18.870  0.0000E+00  0.1280E+03
  18.880  0.0000E+00  0.1280E+03
  18.890  0.0000E+00  0.1280E+03
  18.900  0.0000E+00  0.1280E+03
  18.910  0.0000E+00  0.1280E+03
  18.920  0.0000E+00  0.1280E+03
  18.930  0.0000E+00  0.1280E+03
  18.940  0.0000E+00  0.1280E+03
  18.950  0.0000E+00  0.1280E+03
  18.960  0.0000E+00  0.1280E+03
  18.970  0.0000E+00  0.1280E+03
  18.980  0.0000E+00  0.1280E+03
  18.990  0.0000E+00  0.1280E+03
  19.000  0.0000E+00  0.1280E+03
  19.010  0.0000E+00  0.1280E+03
  19.020  0.0000E+00  0.1280E+03
  19.030  0.0000E+00  0.1280E+03
  19.040  0.0000E+00  0.1280E+03
  19.050  0.0000E+00  0.1280E+03
  19.060  0.0000E+00  0.1280E+03
  19.070  0.0000E+00  0.1280E+03
  19.080  0.0000E+00  0.1280E+03
  19.090  0.0000E+00  0.1280E+03
  19.100  0.0000E+00  0.1280E+03
  19.110  0.0000E+00  0.1280E+03
  19.120  0.0000E+00  0.1280E+03
  19.130  0.0000E+00  0.1280E+03
  19.140  0.0000E+00  0.1280E+03
  19.150  0.0000E+00  0.1280E+03
  19.160  0.0000E+00  0.1280E+03
  19.170  0.0000E+00  0.1280E+03
  19.180  0.0000E+00  0.1280E+03
  19.190  0.0000E+00  0.1280E+03
  19.200  0.0000E+00  0.1280E+03
  19.210  0.0000E+00  0.1280E+03
  19.220  0.0000E+00  0.1280E+03
  19.230  0.0000E+00  0.1280E+03
  19.240  0.0000E+00  0.1280E+03
  19.250  0.0000E+00  0.1280E+03
  19.260  0.0000E+00  0.1280E+03
  19.270  0.0000E+00  0.1280E+03
  19.280  0.0000E+00  0.1280E+03
  19.290  0.0000E+00  0.1280E+03
  19.300  0.0000E+00  0.1280E+03
  19.310  0.0000E+00  0.1280E+03
  19.320  0.0000E+00  0.1280E+03
  19.330  0.0000E+00  0.1280E+03
  19.340  0.0000E+00  0.1280E+03
  19.350  0.0000E+00  0.1280E+03
  19.360  0.0000E+00  0.1280E+03
  19.370  0.0000E+00  0.1280E+03
  19.380  0.0000E+00  0.1280E+03
  19.390  0.0000E+00  0.1280E+03
  19.400  0.0000E+00  0.1280E+03
  19.410  0.0000E+00  0.1280E+03
  19.420  0.0000E+00  0.1280E+03
  19.430  0.0000E+00  0.1280E+03
  19.440  0.0000E+00  0.1280E+03
  19.450  0.0000E+00  0.1280E+03
  19.460  0.0000E+00  0.1280E+03
  19.470  0.0000E+00  0.1280E+03
  19.480  0.0000E+00  0.1280E+03
  19.490  0.0000E+00  0.1280E+03
  19.500  0.0000E+00  0.1280E+03
  19.510  0.0000E+00  0.1280E+03
  19.520  0.0000E+00  0.1280E+03
  19.530  0.0000E+00  0.1280E+03
  19.540  0.0000E+00  0.1280E+03
  19.550  0.0000E+00  0.1280E+03
  19.560  0.0000E+00  0.1280E+03
  19.570  0.0000E+00  0.1280E+03
  19.580  0.0000E+00  0.1280E+03
  19.590  0.0000E+00  0.1280E+03
  19.600  0.0000E+00  0.1280E+03
  19.610  0.0000E+00  0.1280E+03
  19.620  0.0000E+00  0.1280E+03
  19.630  0.0000E+00  0.1280E+03
  19.640  0.0000E+00  0.1280E+03
  19.650  0.0000E+00  0.1280E+03
  19.660  0.0000E+00  0.1280E+03
  19.670  0.0000E+00  0.1280E+03
  19.680  0.0000E+00  0.1280E+03
  19.690  0.0000E+00  0.1280E+03
  19.700  0.0000E+00  0.1280E+03
  19.710  0.0000E+00  0.1280E+03
  19.720  0.0000E+00  0.1280E+03
  19.730  0.0000E+00  0.1280E+03
  19.740  0.0000E+00  0.1280E+03
  19.750  0.0000E+00  0.1280E+03
  19.760  0.0000E+00  0.1280E+03
  19.770  0.0000E+00  0.1280E+03
  19.780  0.0000E+00  0.1280E+03
  19.790  0.0000E+00  0.1280E+03
  19.800  0.0000E+00  0.1280E+03
  19.810  0.0000E+00  0.1280E+03
  19.820  0.0000E+00  0.1280E+03
  19.830  0.0000E+00  0.1280E+03
  19.840  0.0000E+00  0.1280E+03
  19.850  0.0000E+00  0.1280E+03
  19.860  0.0000E+00  0.1280E+03
  19.870  0.0000E+00  0.1280E+03
  19.880  0.0000E+00  0.1280E+03
  19.890  0.0000E+00  0.1280E+03
  19.900  0.0000E+00  0.1280E+03
  19.910  0.0000E+00  0.1280E+03
  19.920  0.0000E+00  0.1280E+03
  19.930  0.0000E+00  0.1280E+03
  19.940  0.0000E+00  0.1280E+03
  19.950  0.0000E+00  0.1280E+03
  19.960  0.0000E+00  0.1280E+03
  19.970  0.0000E+00  0.1280E+03
  19.980  0.0000E+00  0.1280E+03
  19.990  0.0000E+00  0.1280E+03
  20.000  0.0000E+00  0.1280E+03
  20.010  0.0000E+00  0.1280E+03
  20.020  0.0000E+00  0.1280E+03
  20.030  0.0000E+00  0.1280E+03
  20.040  0.0000E+00  0.1280E+03
  20.050  0.0000E+00  0.1280E+03
  20.060  0.0000E+00  0.1280E+03
  20.070  0.0000E+00  0.1280E+03
  20.080  0.0000E+00  0.1280E+03
  20.090  0.0000E+00  0.1280E+03
  20.100  0.0000E+00  0.1280E+03
  20.110  0.0000E+00  0.1280E+03
  20.120  0.0000E+00  0.1280E+03
  20.130  0.0000E+00  0.1280E+03
  20.140  0.0000E+00  0.1280E+03
  20.150  0.0000E+00  0.1280E+03
  20.160  0.0000E+00  0.1280E+03
  20.170  0.0000E+00  0.1280E+03
  20.180  0.0000E+00  0.1280E+03
  20.190  0.0000E+00  0.1280E+03
  20.200  0.0000E+00  0.1280E+03
  20.210  0.0000E+00  0.1280E+03
  20.220  0.0000E+00  0.1280E+03
  20.230  0.0000E+00  0.1280E+03
  20.240  0.0000E+00  0.1280E+03
  20.250  0.0000E+00  0.1280E+03
  20.260  0.0000E+00  0.1280E+03
  20.270  0.0000E+00  0.1280E+03
  20.280  0.0000E+00  0.1280E+03
  20.290  0.0000E+00  0.1280E+03
  20.300  0.0000E+00  0.1280E+03
  20.310  0.0000E+00  0.1280E+03
  20.320  0.0000E+00  0.1280E+03
  20.330  0.0000E+00  0.1280E+03
  20.340  0.0000E+00  0.1280E+03
  20.350  0.0000E+00  0.1280E+03
  20.360  0.0000E+00  0.1280E+03
  20.370  0.0000E+00  0.1280E+03
  20.380  0.0000E+00  0.1280E+03
  20.390  0.0000E+00  0.1280E+03
  20.400  0.0000E+00  0.1280E+03
  20.410  0.0000E+00  0.1280E+03
  20.420  0.0000E+00  0.1280E+03
  20.430  0.0000E+00  0.1280E+03
  20.440  0.0000E+00  0.1280E+03
  20.450  0.0000E+00  0.1280E+03
  20.460  0.0000E+00  0.1280E+03
  20.470  0.0000E+00  0.1280E+03
  20.480  0.0000E+00  0.1280E+03
  20.490  0.0000E+00  0.1280E+03
  20.500  0.0000E+00  0.1280E+03
  20.510  0.0000E+00  0.1280E+03
  20.520  0.0000E+00  0.1280E+03
  20.530  0.0000E+00  0.1280E+03
  20.540  0.0000E+00  0.1280E+03
  20.550  0.0000E+00  0.1280E+03
  20.560  0.0000E+00  0.1280E+03
  20.570  0.0000E+00  0.1280E+03
  20.580  0.0000E+00  0.1280E+03
  20.590  0.0000E+00  0.1280E+03
  20.600  0.0000E+00  0.1280E+03
  20.610  0.0000E+00  0.1280E+03
  20.620  0.0000E+00  0.1280E+03
  20.630  0.0000E+00  0.1280E+03
  20.640  0.0000E+00  0.1280E+03
  20.650  0.0000E+00  0.1280E+03
  20.660  0.0000E+00  0.1280E+03
  20.670  0.0000E+00  0.1280E+03
  20.680  0.0000E+00  0.1280E+03
  20.690  0.0000E+00  0.1280E+03
  20.700  0.0000E+00  0.1280E+03
  20.710  0.0000E+00  0.1280E+03
  20.720  0.0000E+00  0.1280E+03
  20.730  0.0000E+00  0.1280E+03
  20.740  0.0000E+00  0.1280E+03
  20.750  0.0000E+00  0.1280E+03
  20.760  0.0000E+00  0.1280E+03
  20.770  0.0000E+00  0.1280E+03
  20.780  0.0000E+00  0.1280E+03
  20.790  0.0000E+00  0.1280E+03
  20.800  0.0000E+00  0.1280E+03
  20.810  0.0000E+00  0.1280E+03
  20.820  0.0000E+00  0.1280E+03
  20.830  0.0000E+00  0.1280E+03
  20.840  0.0000E+00  0.1280E+03
  20.850  0.0000E+00  0.1280E+03
  20.860  0.0000E+00  0.1280E+03
  20.870  0.0000E+00  0.1280E+03
  20.880  0.0000E+00  0.1280E+03
  20.890  0.0000E+00  0.1280E+03
  20.900  0.0000E+00  0.1280E+03
  20.910  0.0000E+00  0.1280E+03
  20.920  0.0000E+00  0.1280E+03
  20.930  0.0000E+00  0.1280E+03
  20.940  0.0000E+00  0.1280E+03
  20.950  0.0000E+00  0.1280E+03
  20.960  0.0000E+00  0.1280E+03
  20.970  0.0000E+00  0.1280E+03
  20.980  0.0000E+00  0.1280E+03
  20.990  0.0000E+00  0.1280E+03
  21.000  0.0000E+00  0.1280E+03
  21.010  0.0000E+00  0.1280E+03
  21.020  0.0000E+00  0.1280E+03
  21.030  0.0000E+00  0.1280E+03
  21.040  0.0000E+00  0.1280E+03
  21.050  0.0000E+00  0.1280E+03
  21.060  0.0000E+00  0.1280E+03
  21.070  0.0000E+00  0.1280E+03
  21.080  0.0000E+00  0.1280E+03
  21.090  0.0000E+00  0.1280E+03
  21.100  0.0000E+00  0.1280E+03
  21.110  0.0000E+00  0.1280E+03
  21.120  0.0000E+00  0.1280E+03
  21.130  0.0000E+00  0.1280E+03
  21.140  0.0000E+00  0.1280E+03
  21.150  0.0000E+00  0.1280E+03
  21.160  0.0000E+00  0.1280E+03
  21.170  0.0000E+00  0.1280E+03
  21.180  0.0000E+00  0.1280E+03
  21.190  0.0000E+00  0.1280E+03
  21.200  0.0000E+00  0.1280E+03
  21.210  0.0000E+00  0.1280E+03
  21.220  0.0000E+00  0.1280E+03
  21.230  0.0000E+00  0.1280E+03
  21.240  0.0000E+00  0.1280E+03
  21.250  0.0000E+00  0.1280E+03
  21.260  0.0000E+00  0.1280E+03
  21.270  0.0000E+00  0.1280E+03
  21.280  0.0000E+00  0.1280E+03
  21.290  0.0000E+00  0.1280E+03
  21.300  0.0000E+00  0.1280E+03
  21.310  0.0000E+00  0.1280E+03
  21.320  0.0000E+00  0.1280E+03
  21.330  0.0000E+00  0.1280E+03
  21.340  0.0000E+00  0.1280E+03
  21.350  0.0000E+00  0.1280E+03
  21.360  0.0000E+00  0.1280E+03
  21.370  0.0000E+00  0.1280E+03
  21.380  0.0000E+00  0.1280E+03
  21.390  0.0000E+00  0.1280E+03
  21.400  0.0000E+00  0.1280E+03
  21.410  0.0000E+00  0.1280E+03
  21.420  0.0000E+00  0.1280E+03
  21.430  0.0000E+00  0.1280E+03
  21.440  0.0000E+00  0.1280E+03
  21.450  0.0000E+00  0.1280E+03
  21.460  0.0000E+00  0.1280E+03
  21.470  0.0000E+00  0.1280E+03
  21.480  0.0000E+00  0.1280E+03
  21.490  0.0000E+00  0.1280E+03
  21.500  0.0000E+00  0.1280E+03
  21.510  0.0000E+00  0.1280E+03
  21.520  0.0000E+00  0.1280E+03
  21.530  0.0000E+00  0.1280E+03
  21.540  0.0000E+00  0.1280E+03
  21.550  0.0000E+00  0.1280E+03
  21.560  0.0000E+00  0.1280E+03
  21.570  0.0000E+00  0.1280E+03
  21.580  0.0000E+00  0.1280E+03
  21.590  0.0000E+00  0.1280E+03
  21.600  0.0000E+00  0.1280E+03
  21.610  0.0000E+00  0.1280E+03
  21.620  0.0000E+00  0.1280E+03
  21.630  0.0000E+00  0.1280E+03
  21.640  0.0000E+00  0.1280E+03
  21.650  0.0000E+00  0.1280E+03
  21.660  0.0000E+00  0.1280E+03
  21.670  0.0000E+00  0.1280E+03
  21.680  0.0000E+00  0.1280E+03
  21.690  0.0000E+00  0.1280E+03
  21.700  0.0000E+00  0.1280E+03
  21.710  0.0000E+00  0.1280E+03
  21.720  0.0000E+00  0.1280E+03
  21.730  0.0000E+00  0.1280E+03
  21.740  0.0000E+00  0.1280E+03
  21.750  0.0000E+00  0.1280E+03
  21.760  0.0000E+00  0.1280E+03
  21.770  0.0000E+00  0.1280E+03
  21.780  0.0000E+00  0.1280E+03
  21.790  0.0000E+00  0.1280E+03
  21.800  0.0000E+00  0.1280E+03
  21.810  0.0000E+00  0.1280E+03
  21.820  0.0000E+00  0.1280E+03
  21.830  0.0000E+00  0.1280E+03
  21.840  0.0000E+00  0.1280E+03
  21.850  0.0000E+00  0.1280E+03
  21.860  0.0000E+00  0.1280E+03
  21.870  0.0000E+00  0.1280E+03
  21.880  0.0000E+00  0.1280E+03
  21.890  0.0000E+00  0.1280E+03
  21.900  0.0000E+00  0.1280E+03
  21.910  0.0000E+00  0.1280E+03
  21.920  0.0000E+00  0.1280E+03
  21.930  0.0000E+00  0.1280E+03
  21.940  0.0000E+00  0.1280E+03
  21.950  0.0000E+00  0.1280E+03
  21.960  0.0000E+00  0.1280E+03
  21.970  0.0000E+00  0.1280E+03
  21.980  0.0000E+00  0.1280E+03
  21.990  0.0000E+00  0.1280E+03
  22.000  0.0000E+00  0.1280E+03
  22.010  0.0000E+00  0.1280E+03
  22.020  0.0000E+00  0.1280E+03
  22.030  0.0000E+00  0.1280E+03
  22.040  0.0000E+00  0.1280E+03
  22.050  0.0000E+00  0.1280E+03
  22.060  0.0000E+00  0.1280E+03
  22.070  0.0000E+00  0.1280E+03
  22.080  0.0000E+00  0.1280E+03
  22.090  0.0000E+00  0.1280E+03
  22.100  0.0000E+00  0.1280E+03
  22.110  0.0000E+00  0.1280E+03
  22.120  0.0000E+00  0.1280E+03
  22.130  0.0000E+00  0.1280E+03
  22.140  0.0000E+00  0.1280E+03
  22.150  0.0000E+00  0.1280E+03
  22.160  0.0000E+00  0.1280E+03
  22.170  0.0000E+00  0.1280E+03
  22.180  0.0000E+00  0.1280E+03
  22.190  0.0000E+00  0.1280E+03
  22.200  0.0000E+00  0.1280E+03
  22.210  0.0000E+00  0.1280E+03
  22.220  0.0000E+00  0.1280E+03
  22.230  0.0000E+00  0.1280E+03
  22.240  0.0000E+00  0.1280E+03
  22.250  0.0000E+00  0.1280E+03
  22.260  0.0000E+00  0.1280E+03
  22.270  0.0000E+00  0.1280E+03
  22.280  0.0000E+00  0.1280E+03
  22.290  0.0000E+00  0.1280E+03
  22.300  0.0000E+00  0.1280E+03
  22.310  0.0000E+00  0.1280E+03
  22.320  0.0000E+00  0.1280E+03
  22.330  0.0000E+00  0.1280E+03
  22.340  0.0000E+00  0.1280E+03
  22.350  0.0000E+00  0.1280E+03
  22.360  0.0000E+00  0.1280E+03
  22.370  0.0000E+00  0.1280E+03
  22.380  0.0000E+00  0.1280E+03
  22.390  0.0000E+00  0.1280E+03
  22.400  0.0000E+00  0.1280E+03
  22.410  0.0000E+00  0.1280E+03
  22.420  0.0000E+00  0.1280E+03
  22.430  0.0000E+00  0.1280E+03
  22.440  0.0000E+00  0.1280E+03
  22.450  0.0000E+00  0.1280E+03
  22.460  0.0000E+00  0.1280E+03
  22.470  0.0000E+00  0.1280E+03
  22.480  0.0000E+00  0.1280E+03
  22.490  0.0000E+00  0.1280E+03
  22.500  0.0000E+00  0.1280E+03
  22.510  0.0000E+00  0.1280E+03
  22.520  0.0000E+00  0.1280E+03
  22.530  0.0000E+00  0.1280E+03
  22.540  0.0000E+00  0.1280E+03
  22.550  0.0000E+00  0.1280E+03
  22.560  0.0000E+00  0.1280E+03
  22.570  0.0000E+00  0.1280E+03
  22.580  0.0000E+00  0.1280E+03
  22.590  0.0000E+00  0.1280E+03
  22.600  0.0000E+00  0.1280E+03
  22.610  0.0000E+00  0.1280E+03
  22.620  0.0000E+00  0.1280E+03
  22.630  0.0000E+00  0.1280E+03
  22.640  0.0000E+00  0.1280E+03
  22.650  0.0000E+00  0.1280E+03
  22.660  0.0000E+00  0.1280E+03
  22.670  0.0000E+00  0.1280E+03
  22.680  0.0000E+00  0.1280E+03
  22.690  0.0000E+00  0.1280E+03
  22.700  0.0000E+00  0.1280E+03
  22.710  0.0000E+00  0.1280E+03
  22.720  0.0000E+00  0.1280E+03
  22.730  0.0000E+00  0.1280E+03
  22.740  0.0000E+00  0.1280E+03
  22.750  0.0000E+00  0.1280E+03
  22.760  0.0000E+00  0.1280E+03
  22.770  0.0000E+00  0.1280E+03
  22.780  0.0000E+00  0.1280E+03
  22.790  0.0000E+00  0.1280E+03
  22.800  0.0000E+00  0.1280E+03
  22.810  0.0000E+00  0.1280E+03
  22.820  0.0000E+00  0.1280E+03
  22.830  0.0000E+00  0.1280E+03
  22.840  0.0000E+00  0.1280E+03
  22.850  0.0000E+00  0.1280E+03
  22.860  0.0000E+00  0.1280E+03
  22.870  0.0000E+00  0.1280E+03
  22.880  0.0000E+00  0.1280E+03
  22.890  0.0000E+00  0.1280E+03
  22.900  0.0000E+00  0.1280E+03
  22.910  0.0000E+00  0.1280E+03
  22.920  0.0000E+00  0.1280E+03
  22.930  0.0000E+00  0.1280E+03
  22.940  0.0000E+00  0.1280E+03
  22.950  0.0000E+00  0.1280E+03
  22.960  0.0000E+00  0.1280E+03
  22.970  0.0000E+00  0.1280E+03
  22.980  0.0000E+00  0.1280E+03
  22.990  0.0000E+00  0.1280E+03
  23.000  0.0000E+00  0.1280E+03
  23.010  0.0000E+00  0.1280E+03
  23.020  0.0000E+00  0.1280E+03
  23.030  0.0000E+00  0.1280E+03
  23.040  0.0000E+00  0.1280E+03
  23.050  0.0000E+00  0.1280E+03
  23.060  0.0000E+00  0.1280E+03
  23.070  0.0000E+00  0.1280E+03
  23.080  0.0000E+00  0.1280E+03
  23.090  0.0000E+00  0.1280E+03
  23.100  0.0000E+00  0.1280E+03
  23.110  0.0000E+00  0.1280E+03
  23.120  0.0000E+00  0.1280E+03
  23.130  0.0000E+00  0.1280E+03
  23.140  0.0000E+00  0.1280E+03
  23.150  0.0000E+00  0.1280E+03
  23.160  0.0000E+00  0.1280E+03
  23.170  0.0000E+00  0.1280E+03
  23.180  0.0000E+00  0.1280E+03
  23.190  0.0000E+00  0.1280E+03
  23.200  0.0000E+00  0.1280E+03
  23.210  0.0000E+00  0.1280E+03
  23.220  0.0000E+00  0.1280E+03
  23.230  0.0000E+00  0.1280E+03
  23.240  0.0000E+00  0.1280E+03
  23.250  0.0000E+00  0.1280E+03
  23.260  0.0000E+00  0.1280E+03
  23.270  0.0000E+00  0.1280E+03
  23.280  0.0000E+00  0.1280E+03
  23.290  0.0000E+00  0.1280E+03
  23.300  0.0000E+00  0.1280E+03
  23.310  0.0000E+00  0.1280E+03
  23.320  0.0000E+00  0.1280E+03
  23.330  0.0000E+00  0.1280E+03
  23.340  0.0000E+00  0.1280E+03
  23.350  0.0000E+00  0.1280E+03
  23.360  0.0000E+00  0.1280E+03
  23.370  0.0000E+00  0.1280E+03
  23.380  0.0000E+00  0.1280E+03
  23.390  0.0000E+00  0.1280E+03
  23.400  0.0000E+00  0.1280E+03
  23.410  0.0000E+00  0.1280E+03
  23.420  0.0000E+00  0.1280E+03
  23.430  0.0000E+00  0.1280E+03
  23.440  0.0000E+00  0.1280E+03
  23.450  0.0000E+00  0.1280E+03
  23.460  0.0000E+00  0.1280E+03
  23.470  0.0000E+00  0.1280E+03
  23.480  0.0000E+00  0.1280E+03
  23.490  0.0000E+00  0.1280E+03
  23.500  0.0000E+00  0.1280E+03
  23.510  0.0000E+00  0.1280E+03
  23.520  0.0000E+00  0.1280E+03
  23.530  0.0000E+00  0.1280E+03
  23.540  0.0000E+00  0.1280E+03
  23.550  0.0000E+00  0.1280E+03
  23.560  0.0000E+00  0.1280E+03
  23.570  0.0000E+00  0.1280E+03
  23.580  0.0000E+00  0.1280E+03
  23.590  0.0000E+00  0.1280E+03
  23.600  0.0000E+00  0.1280E+03
  23.610  0.0000E+00  0.1280E+03
  23.620  0.0000E+00  0.1280E+03
  23.630  0.0000E+00  0.1280E+03
  23.640  0.0000E+00  0.1280E+03
  23.650  0.0000E+00  0.1280E+03
  23.660  0.0000E+00  0.1280E+03
  23.670  0.0000E+00  0.1280E+03
  23.680  0.0000E+00  0.1280E+03
  23.690  0.0000E+00  0.1280E+03
  23.700  0.0000E+00  0.1280E+03
  23.710  0.0000E+00  0.1280E+03
  23.720  0.0000E+00  0.1280E+03
  23.730  0.0000E+00  0.1280E+03
  23.740  0.0000E+00  0.1280E+03
  23.750  0.0000E+00  0.1280E+03
  23.760  0.0000E+00  0.1280E+03
  23.770  0.0000E+00  0.1280E+03
  23.780  0.0000E+00  0.1280E+03
  23.790  0.0000E+00  0.1280E+03
  23.800  0.0000E+00  0.1280E+03
  23.810  0.0000E+00  0.1280E+03
  23.820  0.0000E+00  0.1280E+03
  23.830  0.0000E+00  0.1280E+03
  23.840  0.0000E+00  0.1280E+03
  23.850  0.0000E+00  0.1280E+03
  23.860  0.0000E+00  0.1280E+03
  23.870  0.0000E+00  0.1280E+03
  23.880  0.0000E+00  0.1280E+03
  23.890  0.0000E+00  0.1280E+03
  23.900  0.0000E+00  0.1280E+03
  23.910  0.0000E+00  0.1280E+03
  23.920  0.0000E+00  0.1280E+03
  23.930  0.0000E+00  0.1280E+03
  23.940  0.0000E+00  0.1280E+03
  23.950  0.0000E+00  0.1280E+03
  23.960  0.0000E+00  0.1280E+03
  23.970  0.0000E+00  0.1280E+03
  23.980  0.0000E+00  0.1280E+03
  23.990  0.0000E+00  0.1280E+03
  24.000  0.0000E+00  0.1280E+03
  24.010  0.0000E+00  0.1280E+03
  24.020  0.0000E+00  0.1280E+03
  24.030  0.0000E+00  0.1280E+03
  24.040  0.0000E+00  0.1280E+03
  24.050  0.0000E+00  0.1280E+03
  24.060  0.0000E+00  0.1280E+03
  24.070  0.0000E+00  0.1280E+03
  24.080  0.0000E+00  0.1280E+03
  24.090  0.0000E+00  0.1280E+03
  24.100  0.0000E+00  0.1280E+03
  24.110  0.0000E+00  0.1280E+03
  24.120  0.0000E+00  0.1280E+03
  24.130  0.0000E+00  0.1280E+03
  24.140  0.0000E+00  0.1280E+03
  24.150  0.0000E+00  0.1280E+03
  24.160  0.0000E+00  0.1280E+03
  24.170  0.0000E+00  0.1280E+03
  24.180  0.0000E+00  0.1280E+03
  24.190  0.0000E+00  0.1280E+03
  24.200  0.0000E+00  0.1280E+03
  24.210  0.0000E+00  0.1280E+03
  24.220  0.0000E+00  0.1280E+03
  24.230  0.0000E+00  0.1280E+03
  24.240  0.0000E+00  0.1280E+03
  24.250  0.0000E+00  0.1280E+03
  24.260  0.0000E+00  0.1280E+03
  24.270  0.0000E+00  0.1280E+03
  24.280  0.0000E+00  0.1280E+03
  24.290  0.0000E+00  0.1280E+03
  24.300  0.0000E+00  0.1280E+03
  24.310  0.0000E+00  0.1280E+03
  24.320  0.0000E+00  0.1280E+03
  24.330  0.0000E+00  0.1280E+03
  24.340  0.0000E+00  0.1280E+03
  24.350  0.0000E+00  0.1280E+03
  24.360  0.0000E+00  0.1280E+03
  24.370  0.0000E+00  0.1280E+03
  24.380  0.0000E+00  0.1280E+03
  24.390  0.0000E+00  0.1280E+03
  24.400  0.0000E+00  0.1280E+03
  24.410  0.0000E+00  0.1280E+03
  24.420  0.0000E+00  0.1280E+03
  24.430  0.0000E+00  0.1280E+03
  24.440  0.0000E+00  0.1280E+03
  24.450  0.0000E+00  0.1280E+03
  24.460  0.0000E+00  0.1280E+03
  24.470  0.0000E+00  0.1280E+03
  24.480  0.0000E+00  0.1280E+03
  24.490  0.0000E+00  0.1280E+03
  24.500  0.0000E+00  0.1280E+03
  24.510  0.0000E+00  0.1280E+03
  24.520  0.0000E+00  0.1280E+03
  24.530  0.0000E+00  0.1280E+03
  24.540  0.0000E+00  0.1280E+03
  24.550  0.0000E+00  0.1280E+03
  24.560  0.0000E+00  0.1280E+03
  24.570  0.0000E+00  0.1280E+03
  24.580  0.0000E+00  0.1280E+03
  24.590  0.0000E+00  0.1280E+03
  24.600  0.0000E+00  0.1280E+03
  24.610  0.0000E+00  0.1280E+03
  24.620  0.0000E+00  0.1280E+03
  24.630  0.0000E+00  0.1280E+03
  24.640  0.0000E+00  0.1280E+03
  24.650  0.0000E+00  0.1280E+03
  24.660  0.0000E+00  0.1280E+03
  24.670  0.0000E+00  0.1280E+03
  24.680  0.0000E+00  0.1280E+03
  24.690  0.0000E+00  0.1280E+03
  24.700  0.0000E+00  0.1280E+03
  24.710  0.0000E+00  0.1280E+03
  24.720  0.0000E+00  0.1280E+03
  24.730  0.0000E+00  0.1280E+03
  24.740  0.0000E+00  0.1280E+03
  24.750  0.0000E+00  0.1280E+03
  24.760  0.0000E+00  0.1280E+03
  24.770  0.0000E+00  0.1280E+03
  24.780  0.0000E+00  0.1280E+03
  24.790  0.0000E+00  0.1280E+03
  24.800  0.0000E+00  0.1280E+03
  24.810  0.0000E+00  0.1280E+03
  24.820  0.0000E+00  0.1280E+03
  24.830  0.0000E+00  0.1280E+03
  24.840  0.0000E+00  0.1280E+03
  24.850  0.0000E+00  0.1280E+03
  24.860  0.0000E+00  0.1280E+03
  24.870  0.0000E+00  0.1280E+03
  24.880  0.0000E+00  0.1280E+03
  24.890  0.0000E+00  0.1280E+03
  24.900  0.0000E+00  0.1280E+03
  24.910  0.0000E+00  0.1280E+03
  24.920  0.0000E+00  0.1280E+03
  24.930  0.0000E+00  0.1280E+03
  24.940  0.0000E+00  0.1280E+03
  24.950  0.0000E+00  0.1280E+03
  24.960  0.0000E+00  0.1280E+03
  24.970  0.0000E+00  0.1280E+03
  24.980  0.0000E+00  0.1280E+03
  24.990  0.0000E+00  0.1280E+03
  25.000  0.0000E+00  0.1280E+03
