#  E (eV)   dos(E)     Int dos(E) EFermi =    9.589 eV
   5.000  0.6918E+01  0.5874E+02
   5.010  0.7103E+01  0.5881E+02
   5.020  0.7150E+01  0.5888E+02
   5.030  0.5847E+01  0.5895E+02
   5.040  0.5453E+01  0.5901E+02
   5.050  0.5433E+01  0.5906E+02
   5.060  0.5436E+01  0.5911E+02
   5.070  0.5446E+01  0.5917E+02
   5.080  0.5438E+01  0.5922E+02
   5.090  0.5385E+01  0.5928E+02
   5.100  0.5296E+01  0.5933E+02
   5.110  0.5212E+01  0.5938E+02
   5.120  0.5128E+01  0.5943E+02
   5.130  0.5038E+01  0.5949E+02
   5.140  0.4946E+01  0.5954E+02
   5.150  0.4863E+01  0.5958E+02
   5.160  0.4791E+01  0.5963E+02
   5.170  0.4735E+01  0.5968E+02
   5.180  0.4700E+01  0.5973E+02
   5.190  0.4686E+01  0.5977E+02
   5.200  0.4693E+01  0.5982E+02
   5.210  0.4718E+01  0.5987E+02
   5.220  0.4770E+01  0.5992E+02
   5.230  0.4934E+01  0.5996E+02
   5.240  0.5101E+01  0.6001E+02
   5.250  0.5205E+01  0.6007E+02
   5.260  0.5316E+01  0.6012E+02
   5.270  0.5441E+01  0.6017E+02
   5.280  0.5582E+01  0.6023E+02
   5.290  0.5736E+01  0.6028E+02
   5.300  0.5935E+01  0.6034E+02
   5.310  0.6354E+01  0.6040E+02
   5.320  0.6808E+01  0.6047E+02
   5.330  0.7430E+01  0.6054E+02
   5.340  0.7770E+01  0.6062E+02
   5.350  0.7778E+01  0.6069E+02
   5.360  0.7852E+01  0.6077E+02
   5.370  0.7942E+01  0.6085E+02
   5.380  0.7855E+01  0.6093E+02
   5.390  0.7691E+01  0.6101E+02
   5.400  0.7562E+01  0.6108E+02
   5.410  0.7471E+01  0.6116E+02
   5.420  0.7302E+01  0.6123E+02
   5.430  0.7340E+01  0.6131E+02
   5.440  0.7011E+01  0.6138E+02
   5.450  0.6274E+01  0.6145E+02
   5.460  0.6100E+01  0.6151E+02
   5.470  0.5926E+01  0.6157E+02
   5.480  0.5735E+01  0.6163E+02
   5.490  0.5603E+01  0.6168E+02
   5.500  0.5439E+01  0.6174E+02
   5.510  0.5266E+01  0.6179E+02
   5.520  0.5173E+01  0.6185E+02
   5.530  0.5318E+01  0.6190E+02
   5.540  0.5547E+01  0.6195E+02
   5.550  0.5781E+01  0.6201E+02
   5.560  0.5995E+01  0.6207E+02
   5.570  0.6437E+01  0.6213E+02
   5.580  0.7396E+01  0.6220E+02
   5.590  0.8030E+01  0.6228E+02
   5.600  0.8116E+01  0.6236E+02
   5.610  0.8470E+01  0.6244E+02
   5.620  0.9334E+01  0.6253E+02
   5.630  0.1056E+02  0.6263E+02
   5.640  0.1176E+02  0.6274E+02
   5.650  0.1185E+02  0.6286E+02
   5.660  0.1070E+02  0.6297E+02
   5.670  0.1020E+02  0.6308E+02
   5.680  0.9959E+01  0.6318E+02
   5.690  0.9718E+01  0.6328E+02
   5.700  0.9440E+01  0.6337E+02
   5.710  0.9155E+01  0.6346E+02
   5.720  0.8867E+01  0.6355E+02
   5.730  0.7463E+01  0.6364E+02
   5.740  0.7030E+01  0.6371E+02
   5.750  0.6745E+01  0.6378E+02
   5.760  0.6532E+01  0.6384E+02
   5.770  0.6409E+01  0.6391E+02
   5.780  0.6352E+01  0.6397E+02
   5.790  0.6323E+01  0.6403E+02
   5.800  0.6320E+01  0.6410E+02
   5.810  0.6342E+01  0.6416E+02
   5.820  0.6376E+01  0.6422E+02
   5.830  0.6398E+01  0.6429E+02
   5.840  0.6418E+01  0.6435E+02
   5.850  0.6451E+01  0.6442E+02
   5.860  0.6501E+01  0.6448E+02
   5.870  0.6548E+01  0.6455E+02
   5.880  0.6628E+01  0.6461E+02
   5.890  0.6811E+01  0.6468E+02
   5.900  0.7305E+01  0.6475E+02
   5.910  0.7733E+01  0.6483E+02
   5.920  0.7556E+01  0.6490E+02
   5.930  0.7556E+01  0.6498E+02
   5.940  0.7585E+01  0.6506E+02
   5.950  0.7597E+01  0.6513E+02
   5.960  0.7732E+01  0.6521E+02
   5.970  0.7979E+01  0.6529E+02
   5.980  0.8255E+01  0.6537E+02
   5.990  0.8476E+01  0.6545E+02
   6.000  0.8642E+01  0.6554E+02
   6.010  0.9143E+01  0.6563E+02
   6.020  0.1082E+02  0.6573E+02
   6.030  0.1180E+02  0.6584E+02
   6.040  0.1386E+02  0.6597E+02
   6.050  0.1437E+02  0.6611E+02
   6.060  0.1461E+02  0.6625E+02
   6.070  0.1460E+02  0.6640E+02
   6.080  0.1406E+02  0.6654E+02
   6.090  0.1385E+02  0.6668E+02
   6.100  0.1322E+02  0.6682E+02
   6.110  0.1264E+02  0.6695E+02
   6.120  0.1219E+02  0.6707E+02
   6.130  0.1272E+02  0.6720E+02
   6.140  0.1368E+02  0.6733E+02
   6.150  0.1409E+02  0.6747E+02
   6.160  0.1301E+02  0.6760E+02
   6.170  0.1141E+02  0.6773E+02
   6.180  0.1081E+02  0.6784E+02
   6.190  0.1047E+02  0.6794E+02
   6.200  0.1031E+02  0.6805E+02
   6.210  0.1023E+02  0.6815E+02
   6.220  0.9942E+01  0.6825E+02
   6.230  0.9834E+01  0.6835E+02
   6.240  0.9844E+01  0.6845E+02
   6.250  0.1032E+02  0.6855E+02
   6.260  0.1120E+02  0.6866E+02
   6.270  0.1217E+02  0.6877E+02
   6.280  0.1313E+02  0.6890E+02
   6.290  0.1411E+02  0.6903E+02
   6.300  0.1631E+02  0.6920E+02
   6.310  0.1181E+02  0.6934E+02
   6.320  0.1079E+02  0.6945E+02
   6.330  0.1116E+02  0.6956E+02
   6.340  0.1252E+02  0.6968E+02
   6.350  0.1822E+02  0.6982E+02
   6.360  0.2089E+02  0.7003E+02
   6.370  0.1814E+02  0.7022E+02
   6.380  0.1679E+02  0.7040E+02
   6.390  0.1617E+02  0.7056E+02
   6.400  0.1496E+02  0.7072E+02
   6.410  0.1384E+02  0.7086E+02
   6.420  0.1366E+02  0.7100E+02
   6.430  0.1253E+02  0.7113E+02
   6.440  0.1154E+02  0.7125E+02
   6.450  0.1102E+02  0.7136E+02
   6.460  0.9969E+01  0.7147E+02
   6.470  0.8674E+01  0.7156E+02
   6.480  0.7829E+01  0.7164E+02
   6.490  0.7509E+01  0.7172E+02
   6.500  0.7224E+01  0.7179E+02
   6.510  0.6922E+01  0.7186E+02
   6.520  0.6631E+01  0.7193E+02
   6.530  0.6346E+01  0.7200E+02
   6.540  0.6215E+01  0.7206E+02
   6.550  0.6206E+01  0.7212E+02
   6.560  0.6024E+01  0.7218E+02
   6.570  0.5906E+01  0.7224E+02
   6.580  0.5853E+01  0.7230E+02
   6.590  0.5850E+01  0.7236E+02
   6.600  0.5879E+01  0.7242E+02
   6.610  0.5946E+01  0.7248E+02
   6.620  0.6105E+01  0.7254E+02
   6.630  0.6317E+01  0.7260E+02
   6.640  0.6641E+01  0.7266E+02
   6.650  0.6997E+01  0.7273E+02
   6.660  0.8071E+01  0.7281E+02
   6.670  0.8613E+01  0.7289E+02
   6.680  0.8674E+01  0.7298E+02
   6.690  0.8523E+01  0.7306E+02
   6.700  0.8622E+01  0.7315E+02
   6.710  0.8804E+01  0.7324E+02
   6.720  0.8880E+01  0.7333E+02
   6.730  0.8610E+01  0.7341E+02
   6.740  0.8217E+01  0.7350E+02
   6.750  0.7848E+01  0.7358E+02
   6.760  0.7495E+01  0.7365E+02
   6.770  0.7144E+01  0.7373E+02
   6.780  0.6749E+01  0.7380E+02
   6.790  0.6500E+01  0.7386E+02
   6.800  0.6547E+01  0.7393E+02
   6.810  0.6817E+01  0.7399E+02
   6.820  0.7231E+01  0.7406E+02
   6.830  0.7611E+01  0.7414E+02
   6.840  0.7057E+01  0.7421E+02
   6.850  0.6700E+01  0.7428E+02
   6.860  0.7205E+01  0.7435E+02
   6.870  0.7801E+01  0.7443E+02
   6.880  0.8575E+01  0.7451E+02
   6.890  0.9752E+01  0.7460E+02
   6.900  0.1028E+02  0.7470E+02
   6.910  0.1056E+02  0.7480E+02
   6.920  0.1073E+02  0.7491E+02
   6.930  0.1075E+02  0.7502E+02
   6.940  0.1053E+02  0.7512E+02
   6.950  0.1027E+02  0.7523E+02
   6.960  0.1016E+02  0.7533E+02
   6.970  0.1005E+02  0.7543E+02
   6.980  0.9985E+01  0.7553E+02
   6.990  0.9653E+01  0.7563E+02
   7.000  0.1007E+02  0.7573E+02
   7.010  0.1139E+02  0.7584E+02
   7.020  0.8261E+01  0.7593E+02
   7.030  0.8355E+01  0.7601E+02
   7.040  0.8185E+01  0.7610E+02
   7.050  0.8073E+01  0.7618E+02
   7.060  0.7973E+01  0.7626E+02
   7.070  0.7879E+01  0.7634E+02
   7.080  0.7792E+01  0.7641E+02
   7.090  0.7714E+01  0.7649E+02
   7.100  0.7655E+01  0.7657E+02
   7.110  0.7617E+01  0.7665E+02
   7.120  0.7670E+01  0.7672E+02
   7.130  0.7950E+01  0.7680E+02
   7.140  0.8148E+01  0.7688E+02
   7.150  0.8278E+01  0.7696E+02
   7.160  0.8255E+01  0.7704E+02
   7.170  0.8205E+01  0.7713E+02
   7.180  0.8183E+01  0.7721E+02
   7.190  0.8186E+01  0.7729E+02
   7.200  0.8190E+01  0.7737E+02
   7.210  0.8297E+01  0.7745E+02
   7.220  0.1266E+02  0.7755E+02
   7.230  0.1080E+02  0.7768E+02
   7.240  0.8352E+01  0.7777E+02
   7.250  0.8203E+01  0.7785E+02
   7.260  0.8099E+01  0.7793E+02
   7.270  0.8429E+01  0.7802E+02
   7.280  0.8416E+01  0.7810E+02
   7.290  0.8208E+01  0.7818E+02
   7.300  0.7947E+01  0.7826E+02
   7.310  0.7735E+01  0.7834E+02
   7.320  0.7533E+01  0.7842E+02
   7.330  0.7265E+01  0.7849E+02
   7.340  0.7101E+01  0.7856E+02
   7.350  0.7136E+01  0.7864E+02
   7.360  0.7199E+01  0.7871E+02
   7.370  0.7441E+01  0.7878E+02
   7.380  0.8013E+01  0.7886E+02
   7.390  0.8481E+01  0.7894E+02
   7.400  0.8908E+01  0.7903E+02
   7.410  0.9852E+01  0.7912E+02
   7.420  0.1137E+02  0.7923E+02
   7.430  0.1195E+02  0.7934E+02
   7.440  0.1271E+02  0.7947E+02
   7.450  0.1328E+02  0.7960E+02
   7.460  0.1431E+02  0.7973E+02
   7.470  0.1518E+02  0.7988E+02
   7.480  0.1599E+02  0.8004E+02
   7.490  0.1680E+02  0.8020E+02
   7.500  0.1487E+02  0.8036E+02
   7.510  0.1733E+02  0.8052E+02
   7.520  0.1673E+02  0.8070E+02
   7.530  0.1644E+02  0.8086E+02
   7.540  0.1653E+02  0.8103E+02
   7.550  0.1528E+02  0.8119E+02
   7.560  0.1407E+02  0.8134E+02
   7.570  0.1348E+02  0.8147E+02
   7.580  0.1341E+02  0.8161E+02
   7.590  0.1401E+02  0.8174E+02
   7.600  0.1534E+02  0.8189E+02
   7.610  0.1675E+02  0.8205E+02
   7.620  0.1605E+02  0.8222E+02
   7.630  0.1498E+02  0.8237E+02
   7.640  0.1514E+02  0.8252E+02
   7.650  0.1435E+02  0.8267E+02
   7.660  0.1314E+02  0.8281E+02
   7.670  0.1258E+02  0.8293E+02
   7.680  0.1217E+02  0.8306E+02
   7.690  0.1184E+02  0.8318E+02
   7.700  0.1165E+02  0.8330E+02
   7.710  0.1177E+02  0.8341E+02
   7.720  0.1197E+02  0.8353E+02
   7.730  0.1221E+02  0.8365E+02
   7.740  0.1240E+02  0.8378E+02
   7.750  0.1251E+02  0.8390E+02
   7.760  0.1275E+02  0.8403E+02
   7.770  0.1308E+02  0.8415E+02
   7.780  0.1281E+02  0.8429E+02
   7.790  0.1248E+02  0.8441E+02
   7.800  0.1316E+02  0.8454E+02
   7.810  0.1379E+02  0.8467E+02
   7.820  0.1457E+02  0.8482E+02
   7.830  0.1518E+02  0.8496E+02
   7.840  0.1654E+02  0.8512E+02
   7.850  0.1863E+02  0.8530E+02
   7.860  0.1563E+02  0.8547E+02
   7.870  0.1420E+02  0.8561E+02
   7.880  0.1362E+02  0.8575E+02
   7.890  0.1285E+02  0.8589E+02
   7.900  0.1080E+02  0.8600E+02
   7.910  0.9971E+01  0.8611E+02
   7.920  0.9678E+01  0.8621E+02
   7.930  0.9677E+01  0.8630E+02
   7.940  0.9687E+01  0.8640E+02
   7.950  0.1001E+02  0.8650E+02
   7.960  0.1049E+02  0.8660E+02
   7.970  0.1050E+02  0.8671E+02
   7.980  0.1054E+02  0.8681E+02
   7.990  0.1050E+02  0.8692E+02
   8.000  0.1030E+02  0.8702E+02
   8.010  0.1016E+02  0.8712E+02
   8.020  0.1024E+02  0.8722E+02
   8.030  0.1019E+02  0.8733E+02
   8.040  0.1013E+02  0.8743E+02
   8.050  0.9870E+01  0.8753E+02
   8.060  0.9581E+01  0.8763E+02
   8.070  0.9210E+01  0.8772E+02
   8.080  0.8909E+01  0.8781E+02
   8.090  0.8963E+01  0.8790E+02
   8.100  0.9180E+01  0.8799E+02
   8.110  0.9602E+01  0.8808E+02
   8.120  0.1030E+02  0.8818E+02
   8.130  0.1067E+02  0.8829E+02
   8.140  0.1068E+02  0.8839E+02
   8.150  0.1054E+02  0.8850E+02
   8.160  0.1031E+02  0.8861E+02
   8.170  0.1032E+02  0.8871E+02
   8.180  0.1035E+02  0.8881E+02
   8.190  0.1022E+02  0.8891E+02
   8.200  0.1039E+02  0.8902E+02
   8.210  0.1111E+02  0.8912E+02
   8.220  0.1213E+02  0.8924E+02
   8.230  0.1255E+02  0.8936E+02
   8.240  0.1241E+02  0.8949E+02
   8.250  0.1286E+02  0.8962E+02
   8.260  0.1341E+02  0.8975E+02
   8.270  0.1369E+02  0.8988E+02
   8.280  0.1389E+02  0.9002E+02
   8.290  0.1474E+02  0.9016E+02
   8.300  0.1364E+02  0.9031E+02
   8.310  0.1402E+02  0.9044E+02
   8.320  0.1457E+02  0.9059E+02
   8.330  0.1532E+02  0.9074E+02
   8.340  0.1560E+02  0.9089E+02
   8.350  0.1509E+02  0.9104E+02
   8.360  0.1535E+02  0.9120E+02
   8.370  0.1580E+02  0.9135E+02
   8.380  0.1585E+02  0.9151E+02
   8.390  0.1621E+02  0.9167E+02
   8.400  0.1773E+02  0.9184E+02
   8.410  0.1926E+02  0.9202E+02
   8.420  0.2014E+02  0.9222E+02
   8.430  0.1971E+02  0.9242E+02
   8.440  0.1858E+02  0.9261E+02
   8.450  0.1694E+02  0.9279E+02
   8.460  0.1629E+02  0.9296E+02
   8.470  0.1588E+02  0.9312E+02
   8.480  0.1557E+02  0.9327E+02
   8.490  0.1545E+02  0.9343E+02
   8.500  0.1551E+02  0.9358E+02
   8.510  0.1544E+02  0.9374E+02
   8.520  0.1495E+02  0.9389E+02
   8.530  0.1448E+02  0.9404E+02
   8.540  0.1601E+02  0.9419E+02
   8.550  0.2303E+02  0.9438E+02
   8.560  0.2767E+02  0.9464E+02
   8.570  0.2487E+02  0.9490E+02
   8.580  0.2329E+02  0.9514E+02
   8.590  0.2152E+02  0.9537E+02
   8.600  0.2075E+02  0.9558E+02
   8.610  0.2115E+02  0.9579E+02
   8.620  0.2219E+02  0.9600E+02
   8.630  0.2869E+02  0.9626E+02
   8.640  0.4267E+02  0.9661E+02
   8.650  0.3170E+02  0.9696E+02
   8.660  0.2662E+02  0.9725E+02
   8.670  0.2109E+02  0.9749E+02
   8.680  0.2029E+02  0.9770E+02
   8.690  0.1382E+02  0.9786E+02
   8.700  0.1294E+02  0.9800E+02
   8.710  0.1237E+02  0.9812E+02
   8.720  0.1194E+02  0.9824E+02
   8.730  0.1158E+02  0.9836E+02
   8.740  0.1135E+02  0.9848E+02
   8.750  0.1124E+02  0.9859E+02
   8.760  0.1119E+02  0.9870E+02
   8.770  0.1126E+02  0.9881E+02
   8.780  0.1144E+02  0.9893E+02
   8.790  0.1168E+02  0.9904E+02
   8.800  0.1180E+02  0.9916E+02
   8.810  0.1254E+02  0.9928E+02
   8.820  0.1308E+02  0.9941E+02
   8.830  0.1298E+02  0.9954E+02
   8.840  0.1338E+02  0.9967E+02
   8.850  0.1418E+02  0.9981E+02
   8.860  0.1508E+02  0.9995E+02
   8.870  0.1686E+02  0.1001E+03
   8.880  0.1670E+02  0.1003E+03
   8.890  0.1743E+02  0.1005E+03
   8.900  0.1809E+02  0.1006E+03
   8.910  0.1777E+02  0.1008E+03
   8.920  0.1772E+02  0.1010E+03
   8.930  0.1896E+02  0.1012E+03
   8.940  0.1670E+02  0.1014E+03
   8.950  0.1617E+02  0.1015E+03
   8.960  0.1569E+02  0.1017E+03
   8.970  0.1499E+02  0.1018E+03
   8.980  0.1361E+02  0.1020E+03
   8.990  0.1163E+02  0.1021E+03
   9.000  0.1030E+02  0.1022E+03
   9.010  0.9382E+01  0.1023E+03
   9.020  0.8843E+01  0.1024E+03
   9.030  0.8545E+01  0.1025E+03
   9.040  0.8755E+01  0.1026E+03
   9.050  0.8486E+01  0.1027E+03
   9.060  0.8146E+01  0.1027E+03
   9.070  0.7858E+01  0.1028E+03
   9.080  0.7670E+01  0.1029E+03
   9.090  0.7546E+01  0.1030E+03
   9.100  0.7582E+01  0.1031E+03
   9.110  0.7518E+01  0.1031E+03
   9.120  0.7463E+01  0.1032E+03
   9.130  0.7412E+01  0.1033E+03
   9.140  0.7358E+01  0.1034E+03
   9.150  0.7299E+01  0.1034E+03
   9.160  0.7321E+01  0.1035E+03
   9.170  0.7387E+01  0.1036E+03
   9.180  0.7635E+01  0.1036E+03
   9.190  0.7781E+01  0.1037E+03
   9.200  0.7995E+01  0.1038E+03
   9.210  0.8338E+01  0.1039E+03
   9.220  0.9914E+01  0.1040E+03
   9.230  0.1133E+02  0.1041E+03
   9.240  0.1199E+02  0.1042E+03
   9.250  0.1208E+02  0.1043E+03
   9.260  0.9653E+01  0.1044E+03
   9.270  0.7925E+01  0.1045E+03
   9.280  0.7674E+01  0.1046E+03
   9.290  0.7483E+01  0.1047E+03
   9.300  0.7301E+01  0.1047E+03
   9.310  0.7135E+01  0.1048E+03
   9.320  0.5480E+01  0.1049E+03
   9.330  0.5088E+01  0.1049E+03
   9.340  0.4985E+01  0.1050E+03
   9.350  0.4868E+01  0.1050E+03
   9.360  0.4742E+01  0.1051E+03
   9.370  0.4610E+01  0.1051E+03
   9.380  0.4471E+01  0.1052E+03
   9.390  0.4331E+01  0.1052E+03
   9.400  0.4196E+01  0.1053E+03
   9.410  0.4092E+01  0.1053E+03
   9.420  0.4127E+01  0.1053E+03
   9.430  0.4171E+01  0.1054E+03
   9.440  0.4221E+01  0.1054E+03
   9.450  0.4287E+01  0.1055E+03
   9.460  0.4237E+01  0.1055E+03
   9.470  0.4164E+01  0.1055E+03
   9.480  0.4089E+01  0.1056E+03
   9.490  0.4015E+01  0.1056E+03
   9.500  0.3945E+01  0.1057E+03
   9.510  0.3891E+01  0.1057E+03
   9.520  0.3852E+01  0.1057E+03
   9.530  0.3815E+01  0.1058E+03
   9.540  0.3778E+01  0.1058E+03
   9.550  0.3741E+01  0.1059E+03
   9.560  0.3617E+01  0.1059E+03
   9.570  0.3485E+01  0.1059E+03
   9.580  0.3363E+01  0.1060E+03
   9.590  0.3325E+01  0.1060E+03
   9.600  0.3290E+01  0.1060E+03
   9.610  0.3255E+01  0.1061E+03
   9.620  0.3210E+01  0.1061E+03
   9.630  0.3148E+01  0.1061E+03
   9.640  0.3091E+01  0.1062E+03
   9.650  0.3049E+01  0.1062E+03
   9.660  0.3012E+01  0.1062E+03
   9.670  0.2973E+01  0.1063E+03
   9.680  0.2932E+01  0.1063E+03
   9.690  0.2891E+01  0.1063E+03
   9.700  0.2852E+01  0.1063E+03
   9.710  0.2813E+01  0.1064E+03
   9.720  0.2774E+01  0.1064E+03
   9.730  0.2734E+01  0.1064E+03
   9.740  0.2697E+01  0.1065E+03
   9.750  0.2666E+01  0.1065E+03
   9.760  0.2635E+01  0.1065E+03
   9.770  0.2606E+01  0.1065E+03
   9.780  0.2578E+01  0.1066E+03
   9.790  0.2551E+01  0.1066E+03
   9.800  0.2524E+01  0.1066E+03
   9.810  0.2496E+01  0.1066E+03
   9.820  0.2468E+01  0.1067E+03
   9.830  0.2440E+01  0.1067E+03
   9.840  0.2412E+01  0.1067E+03
   9.850  0.2379E+01  0.1067E+03
   9.860  0.2319E+01  0.1068E+03
   9.870  0.2257E+01  0.1068E+03
   9.880  0.2189E+01  0.1068E+03
   9.890  0.2159E+01  0.1068E+03
   9.900  0.2137E+01  0.1068E+03
   9.910  0.2115E+01  0.1069E+03
   9.920  0.2094E+01  0.1069E+03
   9.930  0.2073E+01  0.1069E+03
   9.940  0.2054E+01  0.1069E+03
   9.950  0.2027E+01  0.1069E+03
   9.960  0.2010E+01  0.1070E+03
   9.970  0.2002E+01  0.1070E+03
   9.980  0.1994E+01  0.1070E+03
   9.990  0.1986E+01  0.1070E+03
  10.000  0.1978E+01  0.1070E+03
  10.010  0.1970E+01  0.1071E+03
  10.020  0.1962E+01  0.1071E+03
  10.030  0.1954E+01  0.1071E+03
  10.040  0.1946E+01  0.1071E+03
  10.050  0.1938E+01  0.1071E+03
  10.060  0.1930E+01  0.1072E+03
  10.070  0.1922E+01  0.1072E+03
  10.080  0.1914E+01  0.1072E+03
  10.090  0.1906E+01  0.1072E+03
  10.100  0.1898E+01  0.1072E+03
  10.110  0.1890E+01  0.1073E+03
  10.120  0.1882E+01  0.1073E+03
  10.130  0.1876E+01  0.1073E+03
  10.140  0.1872E+01  0.1073E+03
  10.150  0.1868E+01  0.1073E+03
  10.160  0.1865E+01  0.1074E+03
  10.170  0.1861E+01  0.1074E+03
  10.180  0.1858E+01  0.1074E+03
  10.190  0.1855E+01  0.1074E+03
  10.200  0.1851E+01  0.1074E+03
  10.210  0.1848E+01  0.1074E+03
  10.220  0.1844E+01  0.1075E+03
  10.230  0.1841E+01  0.1075E+03
  10.240  0.1837E+01  0.1075E+03
  10.250  0.1834E+01  0.1075E+03
  10.260  0.1831E+01  0.1075E+03
  10.270  0.1827E+01  0.1076E+03
  10.280  0.1824E+01  0.1076E+03
  10.290  0.1820E+01  0.1076E+03
  10.300  0.1817E+01  0.1076E+03
  10.310  0.1814E+01  0.1076E+03
  10.320  0.1810E+01  0.1076E+03
  10.330  0.1807E+01  0.1077E+03
  10.340  0.1803E+01  0.1077E+03
  10.350  0.1801E+01  0.1077E+03
  10.360  0.1803E+01  0.1077E+03
  10.370  0.1807E+01  0.1077E+03
  10.380  0.1810E+01  0.1078E+03
  10.390  0.1814E+01  0.1078E+03
  10.400  0.1818E+01  0.1078E+03
  10.410  0.1821E+01  0.1078E+03
  10.420  0.1830E+01  0.1078E+03
  10.430  0.1843E+01  0.1078E+03
  10.440  0.1858E+01  0.1079E+03
  10.450  0.1872E+01  0.1079E+03
  10.460  0.1898E+01  0.1079E+03
  10.470  0.1922E+01  0.1079E+03
  10.480  0.1945E+01  0.1079E+03
  10.490  0.1966E+01  0.1080E+03
  10.500  0.1983E+01  0.1080E+03
  10.510  0.2000E+01  0.1080E+03
  10.520  0.2005E+01  0.1080E+03
  10.530  0.2017E+01  0.1080E+03
  10.540  0.2030E+01  0.1081E+03
  10.550  0.2038E+01  0.1081E+03
  10.560  0.2045E+01  0.1081E+03
  10.570  0.2053E+01  0.1081E+03
  10.580  0.2060E+01  0.1081E+03
  10.590  0.2065E+01  0.1082E+03
  10.600  0.2068E+01  0.1082E+03
  10.610  0.2068E+01  0.1082E+03
  10.620  0.2069E+01  0.1082E+03
  10.630  0.2070E+01  0.1082E+03
  10.640  0.2062E+01  0.1083E+03
  10.650  0.2051E+01  0.1083E+03
  10.660  0.2040E+01  0.1083E+03
  10.670  0.2029E+01  0.1083E+03
  10.680  0.2018E+01  0.1083E+03
  10.690  0.2008E+01  0.1084E+03
  10.700  0.2010E+01  0.1084E+03
  10.710  0.2018E+01  0.1084E+03
  10.720  0.2026E+01  0.1084E+03
  10.730  0.2034E+01  0.1084E+03
  10.740  0.2042E+01  0.1085E+03
  10.750  0.2050E+01  0.1085E+03
  10.760  0.2057E+01  0.1085E+03
  10.770  0.2063E+01  0.1085E+03
  10.780  0.2063E+01  0.1086E+03
  10.790  0.2054E+01  0.1086E+03
  10.800  0.2043E+01  0.1086E+03
  10.810  0.2032E+01  0.1086E+03
  10.820  0.2021E+01  0.1086E+03
  10.830  0.2010E+01  0.1087E+03
  10.840  0.1999E+01  0.1087E+03
  10.850  0.1989E+01  0.1087E+03
  10.860  0.1978E+01  0.1087E+03
  10.870  0.1967E+01  0.1087E+03
  10.880  0.1956E+01  0.1088E+03
  10.890  0.1945E+01  0.1088E+03
  10.900  0.1934E+01  0.1088E+03
  10.910  0.1923E+01  0.1088E+03
  10.920  0.1912E+01  0.1088E+03
  10.930  0.1909E+01  0.1089E+03
  10.940  0.1951E+01  0.1089E+03
  10.950  0.2035E+01  0.1089E+03
  10.960  0.2099E+01  0.1089E+03
  10.970  0.2130E+01  0.1089E+03
  10.980  0.2156E+01  0.1090E+03
  10.990  0.2182E+01  0.1090E+03
  11.000  0.2205E+01  0.1090E+03
  11.010  0.2227E+01  0.1090E+03
  11.020  0.2268E+01  0.1090E+03
  11.030  0.2324E+01  0.1091E+03
  11.040  0.2376E+01  0.1091E+03
  11.050  0.2443E+01  0.1091E+03
  11.060  0.2529E+01  0.1091E+03
  11.070  0.2584E+01  0.1092E+03
  11.080  0.2593E+01  0.1092E+03
  11.090  0.2628E+01  0.1092E+03
  11.100  0.2701E+01  0.1092E+03
  11.110  0.2770E+01  0.1093E+03
  11.120  0.2838E+01  0.1093E+03
  11.130  0.2806E+01  0.1093E+03
  11.140  0.2773E+01  0.1094E+03
  11.150  0.2742E+01  0.1094E+03
  11.160  0.2722E+01  0.1094E+03
  11.170  0.2706E+01  0.1094E+03
  11.180  0.2681E+01  0.1095E+03
  11.190  0.2624E+01  0.1095E+03
  11.200  0.2540E+01  0.1095E+03
  11.210  0.2444E+01  0.1095E+03
  11.220  0.2373E+01  0.1096E+03
  11.230  0.2329E+01  0.1096E+03
  11.240  0.2279E+01  0.1096E+03
  11.250  0.2210E+01  0.1096E+03
  11.260  0.2096E+01  0.1097E+03
  11.270  0.1939E+01  0.1097E+03
  11.280  0.1781E+01  0.1097E+03
  11.290  0.1637E+01  0.1097E+03
  11.300  0.1510E+01  0.1097E+03
  11.310  0.1385E+01  0.1097E+03
  11.320  0.1257E+01  0.1098E+03
  11.330  0.1238E+01  0.1098E+03
  11.340  0.1238E+01  0.1098E+03
  11.350  0.1238E+01  0.1098E+03
  11.360  0.1210E+01  0.1098E+03
  11.370  0.1167E+01  0.1098E+03
  11.380  0.1134E+01  0.1098E+03
  11.390  0.1108E+01  0.1098E+03
  11.400  0.1081E+01  0.1098E+03
  11.410  0.1055E+01  0.1099E+03
  11.420  0.1028E+01  0.1099E+03
  11.430  0.1001E+01  0.1099E+03
  11.440  0.9749E+00  0.1099E+03
  11.450  0.9483E+00  0.1099E+03
  11.460  0.8618E+00  0.1099E+03
  11.470  0.7986E+00  0.1099E+03
  11.480  0.7592E+00  0.1099E+03
  11.490  0.7198E+00  0.1099E+03
  11.500  0.6804E+00  0.1099E+03
  11.510  0.6410E+00  0.1099E+03
  11.520  0.6016E+00  0.1100E+03
  11.530  0.5622E+00  0.1100E+03
  11.540  0.5228E+00  0.1100E+03
  11.550  0.4834E+00  0.1100E+03
  11.560  0.4440E+00  0.1100E+03
  11.570  0.4046E+00  0.1100E+03
  11.580  0.3652E+00  0.1100E+03
  11.590  0.3259E+00  0.1100E+03
  11.600  0.2865E+00  0.1100E+03
  11.610  0.2471E+00  0.1100E+03
  11.620  0.2077E+00  0.1100E+03
  11.630  0.1733E+00  0.1100E+03
  11.640  0.1529E+00  0.1100E+03
  11.650  0.1325E+00  0.1100E+03
  11.660  0.1121E+00  0.1100E+03
  11.670  0.9167E-01  0.1100E+03
  11.680  0.7127E-01  0.1100E+03
  11.690  0.5087E-01  0.1100E+03
  11.700  0.3047E-01  0.1100E+03
  11.710  0.1007E-01  0.1100E+03
  11.720  0.0000E+00  0.1100E+03
  11.730  0.0000E+00  0.1100E+03
  11.740  0.0000E+00  0.1100E+03
  11.750  0.0000E+00  0.1100E+03
  11.760  0.0000E+00  0.1100E+03
  11.770  0.0000E+00  0.1100E+03
  11.780  0.0000E+00  0.1100E+03
  11.790  0.0000E+00  0.1100E+03
  11.800  0.0000E+00  0.1100E+03
  11.810  0.0000E+00  0.1100E+03
  11.820  0.0000E+00  0.1100E+03
  11.830  0.0000E+00  0.1100E+03
  11.840  0.0000E+00  0.1100E+03
  11.850  0.0000E+00  0.1100E+03
  11.860  0.0000E+00  0.1100E+03
  11.870  0.0000E+00  0.1100E+03
  11.880  0.0000E+00  0.1100E+03
  11.890  0.0000E+00  0.1100E+03
  11.900  0.0000E+00  0.1100E+03
  11.910  0.0000E+00  0.1100E+03
  11.920  0.0000E+00  0.1100E+03
  11.930  0.0000E+00  0.1100E+03
  11.940  0.0000E+00  0.1100E+03
  11.950  0.0000E+00  0.1100E+03
  11.960  0.0000E+00  0.1100E+03
  11.970  0.0000E+00  0.1100E+03
  11.980  0.0000E+00  0.1100E+03
  11.990  0.0000E+00  0.1100E+03
  12.000  0.0000E+00  0.1100E+03
  12.010  0.0000E+00  0.1100E+03
  12.020  0.0000E+00  0.1100E+03
  12.030  0.0000E+00  0.1100E+03
  12.040  0.0000E+00  0.1100E+03
  12.050  0.0000E+00  0.1100E+03
  12.060  0.0000E+00  0.1100E+03
  12.070  0.0000E+00  0.1100E+03
  12.080  0.0000E+00  0.1100E+03
  12.090  0.0000E+00  0.1100E+03
  12.100  0.0000E+00  0.1100E+03
  12.110  0.0000E+00  0.1100E+03
  12.120  0.0000E+00  0.1100E+03
  12.130  0.0000E+00  0.1100E+03
  12.140  0.7579E-03  0.1100E+03
  12.150  0.9792E-02  0.1100E+03
  12.160  0.2710E-01  0.1100E+03
  12.170  0.4685E-01  0.1100E+03
  12.180  0.6661E-01  0.1100E+03
  12.190  0.8636E-01  0.1100E+03
  12.200  0.1061E+00  0.1100E+03
  12.210  0.1259E+00  0.1100E+03
  12.220  0.1456E+00  0.1100E+03
  12.230  0.1654E+00  0.1100E+03
  12.240  0.1851E+00  0.1100E+03
  12.250  0.2049E+00  0.1100E+03
  12.260  0.2246E+00  0.1100E+03
  12.270  0.2444E+00  0.1100E+03
  12.280  0.2641E+00  0.1100E+03
  12.290  0.2838E+00  0.1100E+03
  12.300  0.3036E+00  0.1100E+03
  12.310  0.3233E+00  0.1100E+03
  12.320  0.3431E+00  0.1100E+03
  12.330  0.3628E+00  0.1100E+03
  12.340  0.3826E+00  0.1100E+03
  12.350  0.4023E+00  0.1100E+03
  12.360  0.4213E+00  0.1100E+03
  12.370  0.4382E+00  0.1100E+03
  12.380  0.4540E+00  0.1101E+03
  12.390  0.4686E+00  0.1101E+03
  12.400  0.4818E+00  0.1101E+03
  12.410  0.4949E+00  0.1101E+03
  12.420  0.5079E+00  0.1101E+03
  12.430  0.5188E+00  0.1101E+03
  12.440  0.5218E+00  0.1101E+03
  12.450  0.5171E+00  0.1101E+03
  12.460  0.5112E+00  0.1101E+03
  12.470  0.5054E+00  0.1101E+03
  12.480  0.4996E+00  0.1101E+03
  12.490  0.4937E+00  0.1101E+03
  12.500  0.4879E+00  0.1101E+03
  12.510  0.4820E+00  0.1101E+03
  12.520  0.4762E+00  0.1101E+03
  12.530  0.4707E+00  0.1101E+03
  12.540  0.4666E+00  0.1101E+03
  12.550  0.4639E+00  0.1101E+03
  12.560  0.4627E+00  0.1101E+03
  12.570  0.4621E+00  0.1101E+03
  12.580  0.4622E+00  0.1102E+03
  12.590  0.4629E+00  0.1102E+03
  12.600  0.4643E+00  0.1102E+03
  12.610  0.4663E+00  0.1102E+03
  12.620  0.4714E+00  0.1102E+03
  12.630  0.4795E+00  0.1102E+03
  12.640  0.4901E+00  0.1102E+03
  12.650  0.5035E+00  0.1102E+03
  12.660  0.5199E+00  0.1102E+03
  12.670  0.5370E+00  0.1102E+03
  12.680  0.5548E+00  0.1102E+03
  12.690  0.5733E+00  0.1102E+03
  12.700  0.5925E+00  0.1102E+03
  12.710  0.6123E+00  0.1102E+03
  12.720  0.6328E+00  0.1102E+03
  12.730  0.6539E+00  0.1102E+03
  12.740  0.6759E+00  0.1102E+03
  12.750  0.6995E+00  0.1102E+03
  12.760  0.7249E+00  0.1103E+03
  12.770  0.7521E+00  0.1103E+03
  12.780  0.7811E+00  0.1103E+03
  12.790  0.8121E+00  0.1103E+03
  12.800  0.8440E+00  0.1103E+03
  12.810  0.8762E+00  0.1103E+03
  12.820  0.9087E+00  0.1103E+03
  12.830  0.9411E+00  0.1103E+03
  12.840  0.9709E+00  0.1103E+03
  12.850  0.9979E+00  0.1103E+03
  12.860  0.1024E+01  0.1103E+03
  12.870  0.1049E+01  0.1103E+03
  12.880  0.1072E+01  0.1104E+03
  12.890  0.1094E+01  0.1104E+03
  12.900  0.1114E+01  0.1104E+03
  12.910  0.1134E+01  0.1104E+03
  12.920  0.1152E+01  0.1104E+03
  12.930  0.1168E+01  0.1104E+03
  12.940  0.1183E+01  0.1104E+03
  12.950  0.1196E+01  0.1104E+03
  12.960  0.1207E+01  0.1105E+03
  12.970  0.1212E+01  0.1105E+03
  12.980  0.1211E+01  0.1105E+03
  12.990  0.1209E+01  0.1105E+03
  13.000  0.1206E+01  0.1105E+03
  13.010  0.1204E+01  0.1105E+03
  13.020  0.1202E+01  0.1105E+03
  13.030  0.1203E+01  0.1105E+03
  13.040  0.1206E+01  0.1105E+03
  13.050  0.1210E+01  0.1106E+03
  13.060  0.1216E+01  0.1106E+03
  13.070  0.1222E+01  0.1106E+03
  13.080  0.1231E+01  0.1106E+03
  13.090  0.1242E+01  0.1106E+03
  13.100  0.1259E+01  0.1106E+03
  13.110  0.1284E+01  0.1106E+03
  13.120  0.1315E+01  0.1106E+03
  13.130  0.1350E+01  0.1107E+03
  13.140  0.1387E+01  0.1107E+03
  13.150  0.1424E+01  0.1107E+03
  13.160  0.1461E+01  0.1107E+03
  13.170  0.1498E+01  0.1107E+03
  13.180  0.1535E+01  0.1107E+03
  13.190  0.1570E+01  0.1107E+03
  13.200  0.1605E+01  0.1108E+03
  13.210  0.1641E+01  0.1108E+03
  13.220  0.1676E+01  0.1108E+03
  13.230  0.1711E+01  0.1108E+03
  13.240  0.1746E+01  0.1108E+03
  13.250  0.1783E+01  0.1108E+03
  13.260  0.1820E+01  0.1109E+03
  13.270  0.1860E+01  0.1109E+03
  13.280  0.1903E+01  0.1109E+03
  13.290  0.1950E+01  0.1109E+03
  13.300  0.2001E+01  0.1109E+03
  13.310  0.2055E+01  0.1110E+03
  13.320  0.2112E+01  0.1110E+03
  13.330  0.2171E+01  0.1110E+03
  13.340  0.2236E+01  0.1110E+03
  13.350  0.2306E+01  0.1111E+03
  13.360  0.2380E+01  0.1111E+03
  13.370  0.2464E+01  0.1111E+03
  13.380  0.2564E+01  0.1111E+03
  13.390  0.2675E+01  0.1111E+03
  13.400  0.2796E+01  0.1112E+03
  13.410  0.2918E+01  0.1112E+03
  13.420  0.2979E+01  0.1112E+03
  13.430  0.2969E+01  0.1113E+03
  13.440  0.2872E+01  0.1113E+03
  13.450  0.2769E+01  0.1113E+03
  13.460  0.2666E+01  0.1113E+03
  13.470  0.2563E+01  0.1114E+03
  13.480  0.2459E+01  0.1114E+03
  13.490  0.2359E+01  0.1114E+03
  13.500  0.2258E+01  0.1114E+03
  13.510  0.2159E+01  0.1115E+03
  13.520  0.2065E+01  0.1115E+03
  13.530  0.2005E+01  0.1115E+03
  13.540  0.1992E+01  0.1115E+03
  13.550  0.2134E+01  0.1116E+03
  13.560  0.2315E+01  0.1116E+03
  13.570  0.2332E+01  0.1116E+03
  13.580  0.2290E+01  0.1116E+03
  13.590  0.2237E+01  0.1116E+03
  13.600  0.2177E+01  0.1117E+03
  13.610  0.2118E+01  0.1117E+03
  13.620  0.2058E+01  0.1117E+03
  13.630  0.1998E+01  0.1117E+03
  13.640  0.1939E+01  0.1117E+03
  13.650  0.1879E+01  0.1118E+03
  13.660  0.1819E+01  0.1118E+03
  13.670  0.1760E+01  0.1118E+03
  13.680  0.1702E+01  0.1118E+03
  13.690  0.1645E+01  0.1118E+03
  13.700  0.1587E+01  0.1119E+03
  13.710  0.1529E+01  0.1119E+03
  13.720  0.1471E+01  0.1119E+03
  13.730  0.1415E+01  0.1119E+03
  13.740  0.1363E+01  0.1119E+03
  13.750  0.1316E+01  0.1119E+03
  13.760  0.1274E+01  0.1119E+03
  13.770  0.1231E+01  0.1120E+03
  13.780  0.1190E+01  0.1120E+03
  13.790  0.1156E+01  0.1120E+03
  13.800  0.1129E+01  0.1120E+03
  13.810  0.1110E+01  0.1120E+03
  13.820  0.1108E+01  0.1120E+03
  13.830  0.1120E+01  0.1120E+03
  13.840  0.1145E+01  0.1120E+03
  13.850  0.1187E+01  0.1120E+03
  13.860  0.1237E+01  0.1121E+03
  13.870  0.1293E+01  0.1121E+03
  13.880  0.1363E+01  0.1121E+03
  13.890  0.1446E+01  0.1121E+03
  13.900  0.1535E+01  0.1121E+03
  13.910  0.1630E+01  0.1121E+03
  13.920  0.1729E+01  0.1121E+03
  13.930  0.1833E+01  0.1122E+03
  13.940  0.1942E+01  0.1122E+03
  13.950  0.2031E+01  0.1122E+03
  13.960  0.2112E+01  0.1122E+03
  13.970  0.2181E+01  0.1122E+03
  13.980  0.2227E+01  0.1123E+03
  13.990  0.2263E+01  0.1123E+03
  14.000  0.2293E+01  0.1123E+03
  14.010  0.2313E+01  0.1123E+03
  14.020  0.2320E+01  0.1124E+03
  14.030  0.2326E+01  0.1124E+03
  14.040  0.2331E+01  0.1124E+03
  14.050  0.2316E+01  0.1124E+03
  14.060  0.2260E+01  0.1124E+03
  14.070  0.2223E+01  0.1125E+03
  14.080  0.2182E+01  0.1125E+03
  14.090  0.2160E+01  0.1125E+03
  14.100  0.2157E+01  0.1125E+03
  14.110  0.2166E+01  0.1126E+03
  14.120  0.2178E+01  0.1126E+03
  14.130  0.2192E+01  0.1126E+03
  14.140  0.2207E+01  0.1126E+03
  14.150  0.2225E+01  0.1126E+03
  14.160  0.2244E+01  0.1127E+03
  14.170  0.2262E+01  0.1127E+03
  14.180  0.2279E+01  0.1127E+03
  14.190  0.2295E+01  0.1127E+03
  14.200  0.2311E+01  0.1128E+03
  14.210  0.2326E+01  0.1128E+03
  14.220  0.2359E+01  0.1128E+03
  14.230  0.2416E+01  0.1128E+03
  14.240  0.2472E+01  0.1129E+03
  14.250  0.2522E+01  0.1129E+03
  14.260  0.2569E+01  0.1129E+03
  14.270  0.2614E+01  0.1129E+03
  14.280  0.2659E+01  0.1130E+03
  14.290  0.2705E+01  0.1130E+03
  14.300  0.2750E+01  0.1130E+03
  14.310  0.2795E+01  0.1130E+03
  14.320  0.2836E+01  0.1131E+03
  14.330  0.2875E+01  0.1131E+03
  14.340  0.2913E+01  0.1131E+03
  14.350  0.2950E+01  0.1132E+03
  14.360  0.2988E+01  0.1132E+03
  14.370  0.3028E+01  0.1132E+03
  14.380  0.3074E+01  0.1132E+03
  14.390  0.3131E+01  0.1133E+03
  14.400  0.3189E+01  0.1133E+03
  14.410  0.3267E+01  0.1133E+03
  14.420  0.3458E+01  0.1134E+03
  14.430  0.3654E+01  0.1134E+03
  14.440  0.3617E+01  0.1134E+03
  14.450  0.3504E+01  0.1135E+03
  14.460  0.3391E+01  0.1135E+03
  14.470  0.3279E+01  0.1135E+03
  14.480  0.3167E+01  0.1136E+03
  14.490  0.3056E+01  0.1136E+03
  14.500  0.2946E+01  0.1136E+03
  14.510  0.2865E+01  0.1137E+03
  14.520  0.2830E+01  0.1137E+03
  14.530  0.2841E+01  0.1137E+03
  14.540  0.2870E+01  0.1138E+03
  14.550  0.2907E+01  0.1138E+03
  14.560  0.2947E+01  0.1138E+03
  14.570  0.2988E+01  0.1138E+03
  14.580  0.3025E+01  0.1139E+03
  14.590  0.3045E+01  0.1139E+03
  14.600  0.3048E+01  0.1139E+03
  14.610  0.3043E+01  0.1140E+03
  14.620  0.3042E+01  0.1140E+03
  14.630  0.3045E+01  0.1140E+03
  14.640  0.3076E+01  0.1141E+03
  14.650  0.3103E+01  0.1141E+03
  14.660  0.2931E+01  0.1141E+03
  14.670  0.2690E+01  0.1141E+03
  14.680  0.2325E+01  0.1142E+03
  14.690  0.2142E+01  0.1142E+03
  14.700  0.2061E+01  0.1142E+03
  14.710  0.2011E+01  0.1142E+03
  14.720  0.1964E+01  0.1143E+03
  14.730  0.1921E+01  0.1143E+03
  14.740  0.1882E+01  0.1143E+03
  14.750  0.1887E+01  0.1143E+03
  14.760  0.2013E+01  0.1143E+03
  14.770  0.2144E+01  0.1144E+03
  14.780  0.2279E+01  0.1144E+03
  14.790  0.2352E+01  0.1144E+03
  14.800  0.2360E+01  0.1144E+03
  14.810  0.2284E+01  0.1144E+03
  14.820  0.2198E+01  0.1145E+03
  14.830  0.2117E+01  0.1145E+03
  14.840  0.2037E+01  0.1145E+03
  14.850  0.1984E+01  0.1145E+03
  14.860  0.1986E+01  0.1145E+03
  14.870  0.2059E+01  0.1146E+03
  14.880  0.2175E+01  0.1146E+03
  14.890  0.2341E+01  0.1146E+03
  14.900  0.2549E+01  0.1146E+03
  14.910  0.3393E+01  0.1147E+03
  14.920  0.4324E+01  0.1147E+03
  14.930  0.4797E+01  0.1147E+03
  14.940  0.5044E+01  0.1148E+03
  14.950  0.5258E+01  0.1148E+03
  14.960  0.5347E+01  0.1149E+03
  14.970  0.5310E+01  0.1150E+03
  14.980  0.5517E+01  0.1150E+03
  14.990  0.5703E+01  0.1151E+03
  15.000  0.6000E+01  0.1151E+03
  15.010  0.6299E+01  0.1152E+03
  15.020  0.6426E+01  0.1152E+03
  15.030  0.6532E+01  0.1153E+03
  15.040  0.6630E+01  0.1154E+03
  15.050  0.6731E+01  0.1154E+03
  15.060  0.6838E+01  0.1155E+03
  15.070  0.6939E+01  0.1156E+03
  15.080  0.6964E+01  0.1157E+03
  15.090  0.6860E+01  0.1157E+03
  15.100  0.6647E+01  0.1158E+03
  15.110  0.6312E+01  0.1159E+03
  15.120  0.5888E+01  0.1159E+03
  15.130  0.5579E+01  0.1160E+03
  15.140  0.5436E+01  0.1160E+03
  15.150  0.5337E+01  0.1161E+03
  15.160  0.5379E+01  0.1161E+03
  15.170  0.5442E+01  0.1162E+03
  15.180  0.5521E+01  0.1162E+03
  15.190  0.5632E+01  0.1163E+03
  15.200  0.5785E+01  0.1164E+03
  15.210  0.5963E+01  0.1164E+03
  15.220  0.6156E+01  0.1165E+03
  15.230  0.6320E+01  0.1165E+03
  15.240  0.6437E+01  0.1166E+03
  15.250  0.6176E+01  0.1167E+03
  15.260  0.5873E+01  0.1167E+03
  15.270  0.5670E+01  0.1168E+03
  15.280  0.5583E+01  0.1168E+03
  15.290  0.5492E+01  0.1169E+03
  15.300  0.5186E+01  0.1169E+03
  15.310  0.4749E+01  0.1170E+03
  15.320  0.4543E+01  0.1170E+03
  15.330  0.4471E+01  0.1171E+03
  15.340  0.4422E+01  0.1171E+03
  15.350  0.4571E+01  0.1172E+03
  15.360  0.5690E+01  0.1172E+03
  15.370  0.7153E+01  0.1173E+03
  15.380  0.7183E+01  0.1174E+03
  15.390  0.7240E+01  0.1174E+03
  15.400  0.7132E+01  0.1175E+03
  15.410  0.6420E+01  0.1176E+03
  15.420  0.5543E+01  0.1176E+03
  15.430  0.4960E+01  0.1177E+03
  15.440  0.4434E+01  0.1177E+03
  15.450  0.4326E+01  0.1178E+03
  15.460  0.4271E+01  0.1178E+03
  15.470  0.4245E+01  0.1179E+03
  15.480  0.4241E+01  0.1179E+03
  15.490  0.4257E+01  0.1180E+03
  15.500  0.4287E+01  0.1180E+03
  15.510  0.4323E+01  0.1180E+03
  15.520  0.4370E+01  0.1181E+03
  15.530  0.4423E+01  0.1181E+03
  15.540  0.4488E+01  0.1182E+03
  15.550  0.4556E+01  0.1182E+03
  15.560  0.4621E+01  0.1183E+03
  15.570  0.4676E+01  0.1183E+03
  15.580  0.4713E+01  0.1184E+03
  15.590  0.4728E+01  0.1184E+03
  15.600  0.4737E+01  0.1184E+03
  15.610  0.4730E+01  0.1185E+03
  15.620  0.4699E+01  0.1185E+03
  15.630  0.4652E+01  0.1186E+03
  15.640  0.4597E+01  0.1186E+03
  15.650  0.4539E+01  0.1187E+03
  15.660  0.4513E+01  0.1187E+03
  15.670  0.4502E+01  0.1188E+03
  15.680  0.4511E+01  0.1188E+03
  15.690  0.4546E+01  0.1189E+03
  15.700  0.4559E+01  0.1189E+03
  15.710  0.4575E+01  0.1190E+03
  15.720  0.4571E+01  0.1190E+03
  15.730  0.4539E+01  0.1190E+03
  15.740  0.4482E+01  0.1191E+03
  15.750  0.4414E+01  0.1191E+03
  15.760  0.4381E+01  0.1192E+03
  15.770  0.4421E+01  0.1192E+03
  15.780  0.4844E+01  0.1193E+03
  15.790  0.5294E+01  0.1193E+03
  15.800  0.5691E+01  0.1194E+03
  15.810  0.6062E+01  0.1194E+03
  15.820  0.6435E+01  0.1195E+03
  15.830  0.6801E+01  0.1196E+03
  15.840  0.7099E+01  0.1196E+03
  15.850  0.7129E+01  0.1197E+03
  15.860  0.6533E+01  0.1198E+03
  15.870  0.6345E+01  0.1198E+03
  15.880  0.6150E+01  0.1199E+03
  15.890  0.5909E+01  0.1200E+03
  15.900  0.5646E+01  0.1200E+03
  15.910  0.5481E+01  0.1201E+03
  15.920  0.5359E+01  0.1201E+03
  15.930  0.5264E+01  0.1202E+03
  15.940  0.5178E+01  0.1202E+03
  15.950  0.5100E+01  0.1203E+03
  15.960  0.5033E+01  0.1203E+03
  15.970  0.4986E+01  0.1204E+03
  15.980  0.4965E+01  0.1204E+03
  15.990  0.4962E+01  0.1205E+03
  16.000  0.4956E+01  0.1205E+03
  16.010  0.5051E+01  0.1206E+03
  16.020  0.5156E+01  0.1206E+03
  16.030  0.5272E+01  0.1207E+03
  16.040  0.5395E+01  0.1207E+03
  16.050  0.5508E+01  0.1208E+03
  16.060  0.5606E+01  0.1209E+03
  16.070  0.5698E+01  0.1209E+03
  16.080  0.5628E+01  0.1210E+03
  16.090  0.5590E+01  0.1210E+03
  16.100  0.5587E+01  0.1211E+03
  16.110  0.5620E+01  0.1211E+03
  16.120  0.5675E+01  0.1212E+03
  16.130  0.5698E+01  0.1212E+03
  16.140  0.5700E+01  0.1213E+03
  16.150  0.5754E+01  0.1214E+03
  16.160  0.6029E+01  0.1214E+03
  16.170  0.6444E+01  0.1215E+03
  16.180  0.6903E+01  0.1215E+03
  16.190  0.7490E+01  0.1216E+03
  16.200  0.7974E+01  0.1217E+03
  16.210  0.8262E+01  0.1218E+03
  16.220  0.8565E+01  0.1219E+03
  16.230  0.8852E+01  0.1219E+03
  16.240  0.9053E+01  0.1220E+03
  16.250  0.9041E+01  0.1221E+03
  16.260  0.9016E+01  0.1222E+03
  16.270  0.8987E+01  0.1223E+03
  16.280  0.8718E+01  0.1224E+03
  16.290  0.8509E+01  0.1225E+03
  16.300  0.8395E+01  0.1226E+03
  16.310  0.8322E+01  0.1227E+03
  16.320  0.8470E+01  0.1227E+03
  16.330  0.8615E+01  0.1228E+03
  16.340  0.8794E+01  0.1229E+03
  16.350  0.8854E+01  0.1230E+03
  16.360  0.8669E+01  0.1231E+03
  16.370  0.8583E+01  0.1232E+03
  16.380  0.8534E+01  0.1233E+03
  16.390  0.8574E+01  0.1233E+03
  16.400  0.8714E+01  0.1234E+03
  16.410  0.8829E+01  0.1235E+03
  16.420  0.8927E+01  0.1236E+03
  16.430  0.9328E+01  0.1237E+03
  16.440  0.1007E+02  0.1238E+03
  16.450  0.1121E+02  0.1239E+03
  16.460  0.1201E+02  0.1240E+03
  16.470  0.1217E+02  0.1241E+03
  16.480  0.1218E+02  0.1243E+03
  16.490  0.1184E+02  0.1244E+03
  16.500  0.1160E+02  0.1245E+03
  16.510  0.1141E+02  0.1246E+03
  16.520  0.1081E+02  0.1247E+03
  16.530  0.1020E+02  0.1248E+03
  16.540  0.9952E+01  0.1249E+03
  16.550  0.1000E+02  0.1250E+03
  16.560  0.9971E+01  0.1251E+03
  16.570  0.9461E+01  0.1252E+03
  16.580  0.9133E+01  0.1253E+03
  16.590  0.8921E+01  0.1254E+03
  16.600  0.8676E+01  0.1255E+03
  16.610  0.8553E+01  0.1256E+03
  16.620  0.8513E+01  0.1257E+03
  16.630  0.8486E+01  0.1258E+03
  16.640  0.8445E+01  0.1258E+03
  16.650  0.8383E+01  0.1259E+03
  16.660  0.8301E+01  0.1260E+03
  16.670  0.8185E+01  0.1261E+03
  16.680  0.8218E+01  0.1262E+03
  16.690  0.8571E+01  0.1263E+03
  16.700  0.8921E+01  0.1263E+03
  16.710  0.9064E+01  0.1264E+03
  16.720  0.9101E+01  0.1265E+03
  16.730  0.9000E+01  0.1266E+03
  16.740  0.8980E+01  0.1267E+03
  16.750  0.9063E+01  0.1268E+03
  16.760  0.9114E+01  0.1269E+03
  16.770  0.9040E+01  0.1270E+03
  16.780  0.8819E+01  0.1271E+03
  16.790  0.8529E+01  0.1272E+03
  16.800  0.8343E+01  0.1272E+03
  16.810  0.8246E+01  0.1273E+03
  16.820  0.8242E+01  0.1274E+03
  16.830  0.8237E+01  0.1275E+03
  16.840  0.8407E+01  0.1276E+03
  16.850  0.8755E+01  0.1277E+03
  16.860  0.8997E+01  0.1277E+03
  16.870  0.9014E+01  0.1278E+03
  16.880  0.9209E+01  0.1279E+03
  16.890  0.9438E+01  0.1280E+03
  16.900  0.9568E+01  0.1281E+03
  16.910  0.9629E+01  0.1282E+03
  16.920  0.9635E+01  0.1283E+03
  16.930  0.9593E+01  0.1284E+03
  16.940  0.9520E+01  0.1285E+03
  16.950  0.9395E+01  0.1286E+03
  16.960  0.9372E+01  0.1287E+03
  16.970  0.8680E+01  0.1288E+03
  16.980  0.7969E+01  0.1289E+03
  16.990  0.7488E+01  0.1289E+03
  17.000  0.7257E+01  0.1290E+03
  17.010  0.7096E+01  0.1291E+03
  17.020  0.6928E+01  0.1291E+03
  17.030  0.6798E+01  0.1292E+03
  17.040  0.6713E+01  0.1293E+03
  17.050  0.6665E+01  0.1294E+03
  17.060  0.6874E+01  0.1294E+03
  17.070  0.7347E+01  0.1295E+03
  17.080  0.7791E+01  0.1296E+03
  17.090  0.8194E+01  0.1296E+03
  17.100  0.8529E+01  0.1297E+03
  17.110  0.8652E+01  0.1298E+03
  17.120  0.8952E+01  0.1299E+03
  17.130  0.9345E+01  0.1300E+03
  17.140  0.9510E+01  0.1301E+03
  17.150  0.9519E+01  0.1302E+03
  17.160  0.9430E+01  0.1303E+03
  17.170  0.9342E+01  0.1304E+03
  17.180  0.9457E+01  0.1305E+03
  17.190  0.9628E+01  0.1306E+03
  17.200  0.9639E+01  0.1307E+03
  17.210  0.9761E+01  0.1308E+03
  17.220  0.9580E+01  0.1309E+03
  17.230  0.9345E+01  0.1309E+03
  17.240  0.8911E+01  0.1310E+03
  17.250  0.8589E+01  0.1311E+03
  17.260  0.8320E+01  0.1312E+03
  17.270  0.8077E+01  0.1313E+03
  17.280  0.7905E+01  0.1314E+03
  17.290  0.7761E+01  0.1315E+03
  17.300  0.7635E+01  0.1315E+03
  17.310  0.7552E+01  0.1316E+03
  17.320  0.7567E+01  0.1317E+03
  17.330  0.7388E+01  0.1318E+03
  17.340  0.7295E+01  0.1318E+03
  17.350  0.7230E+01  0.1319E+03
  17.360  0.7220E+01  0.1320E+03
  17.370  0.7325E+01  0.1320E+03
  17.380  0.7511E+01  0.1321E+03
  17.390  0.7990E+01  0.1322E+03
  17.400  0.7926E+01  0.1323E+03
  17.410  0.7684E+01  0.1324E+03
  17.420  0.7578E+01  0.1324E+03
  17.430  0.7566E+01  0.1325E+03
  17.440  0.7702E+01  0.1326E+03
  17.450  0.7980E+01  0.1327E+03
  17.460  0.8102E+01  0.1327E+03
  17.470  0.7939E+01  0.1328E+03
  17.480  0.7707E+01  0.1329E+03
  17.490  0.7580E+01  0.1330E+03
  17.500  0.7601E+01  0.1331E+03
  17.510  0.7481E+01  0.1331E+03
  17.520  0.7306E+01  0.1332E+03
  17.530  0.7192E+01  0.1333E+03
  17.540  0.7089E+01  0.1333E+03
  17.550  0.6998E+01  0.1334E+03
  17.560  0.6905E+01  0.1335E+03
  17.570  0.6880E+01  0.1336E+03
  17.580  0.6857E+01  0.1336E+03
  17.590  0.6661E+01  0.1337E+03
  17.600  0.6521E+01  0.1338E+03
  17.610  0.6464E+01  0.1338E+03
  17.620  0.6379E+01  0.1339E+03
  17.630  0.6219E+01  0.1340E+03
  17.640  0.6099E+01  0.1340E+03
  17.650  0.6066E+01  0.1341E+03
  17.660  0.6113E+01  0.1341E+03
  17.670  0.6276E+01  0.1342E+03
  17.680  0.6575E+01  0.1343E+03
  17.690  0.6778E+01  0.1343E+03
  17.700  0.7022E+01  0.1344E+03
  17.710  0.7434E+01  0.1345E+03
  17.720  0.7992E+01  0.1345E+03
  17.730  0.8903E+01  0.1346E+03
  17.740  0.1017E+02  0.1347E+03
  17.750  0.1132E+02  0.1348E+03
  17.760  0.1139E+02  0.1349E+03
  17.770  0.1055E+02  0.1351E+03
  17.780  0.9136E+01  0.1352E+03
  17.790  0.7740E+01  0.1352E+03
  17.800  0.6723E+01  0.1353E+03
  17.810  0.6427E+01  0.1354E+03
  17.820  0.6623E+01  0.1354E+03
  17.830  0.7183E+01  0.1355E+03
  17.840  0.7622E+01  0.1356E+03
  17.850  0.7995E+01  0.1357E+03
  17.860  0.8342E+01  0.1357E+03
  17.870  0.8999E+01  0.1358E+03
  17.880  0.1000E+02  0.1359E+03
  17.890  0.1101E+02  0.1360E+03
  17.900  0.1188E+02  0.1361E+03
  17.910  0.1036E+02  0.1363E+03
  17.920  0.9974E+01  0.1364E+03
  17.930  0.9558E+01  0.1365E+03
  17.940  0.9363E+01  0.1365E+03
  17.950  0.8964E+01  0.1366E+03
  17.960  0.8873E+01  0.1367E+03
  17.970  0.8570E+01  0.1368E+03
  17.980  0.8042E+01  0.1369E+03
  17.990  0.7437E+01  0.1370E+03
  18.000  0.7067E+01  0.1370E+03
  18.010  0.6970E+01  0.1371E+03
  18.020  0.7063E+01  0.1372E+03
  18.030  0.7153E+01  0.1373E+03
  18.040  0.7484E+01  0.1373E+03
  18.050  0.7744E+01  0.1374E+03
  18.060  0.7673E+01  0.1375E+03
  18.070  0.7457E+01  0.1376E+03
  18.080  0.6973E+01  0.1376E+03
  18.090  0.7164E+01  0.1377E+03
  18.100  0.7317E+01  0.1378E+03
  18.110  0.7535E+01  0.1379E+03
  18.120  0.7868E+01  0.1379E+03
  18.130  0.8360E+01  0.1380E+03
  18.140  0.8738E+01  0.1381E+03
  18.150  0.8750E+01  0.1382E+03
  18.160  0.8833E+01  0.1383E+03
  18.170  0.8925E+01  0.1384E+03
  18.180  0.9008E+01  0.1384E+03
  18.190  0.9066E+01  0.1385E+03
  18.200  0.9106E+01  0.1386E+03
  18.210  0.9048E+01  0.1387E+03
  18.220  0.9015E+01  0.1388E+03
  18.230  0.8727E+01  0.1389E+03
  18.240  0.8333E+01  0.1390E+03
  18.250  0.7869E+01  0.1391E+03
  18.260  0.7285E+01  0.1391E+03
  18.270  0.6458E+01  0.1392E+03
  18.280  0.6128E+01  0.1393E+03
  18.290  0.5898E+01  0.1393E+03
  18.300  0.5734E+01  0.1394E+03
  18.310  0.5630E+01  0.1395E+03
  18.320  0.5524E+01  0.1395E+03
  18.330  0.5513E+01  0.1396E+03
  18.340  0.5470E+01  0.1396E+03
  18.350  0.5238E+01  0.1397E+03
  18.360  0.4938E+01  0.1397E+03
  18.370  0.4727E+01  0.1398E+03
  18.380  0.5794E+01  0.1398E+03
  18.390  0.7016E+01  0.1399E+03
  18.400  0.6610E+01  0.1400E+03
  18.410  0.5658E+01  0.1400E+03
  18.420  0.5505E+01  0.1401E+03
  18.430  0.5661E+01  0.1401E+03
  18.440  0.5872E+01  0.1402E+03
  18.450  0.6098E+01  0.1402E+03
  18.460  0.6381E+01  0.1403E+03
  18.470  0.6719E+01  0.1404E+03
  18.480  0.7093E+01  0.1404E+03
  18.490  0.7494E+01  0.1405E+03
  18.500  0.7925E+01  0.1406E+03
  18.510  0.8543E+01  0.1407E+03
  18.520  0.9595E+01  0.1408E+03
  18.530  0.1081E+02  0.1409E+03
  18.540  0.1161E+02  0.1410E+03
  18.550  0.1199E+02  0.1411E+03
  18.560  0.1116E+02  0.1412E+03
  18.570  0.9584E+01  0.1413E+03
  18.580  0.8707E+01  0.1414E+03
  18.590  0.7821E+01  0.1415E+03
  18.600  0.7385E+01  0.1416E+03
  18.610  0.7002E+01  0.1416E+03
  18.620  0.6600E+01  0.1417E+03
  18.630  0.6484E+01  0.1418E+03
  18.640  0.6346E+01  0.1418E+03
  18.650  0.6380E+01  0.1419E+03
  18.660  0.6776E+01  0.1420E+03
  18.670  0.7390E+01  0.1420E+03
  18.680  0.8299E+01  0.1421E+03
  18.690  0.8853E+01  0.1422E+03
  18.700  0.8983E+01  0.1423E+03
  18.710  0.9395E+01  0.1424E+03
  18.720  0.8655E+01  0.1425E+03
  18.730  0.8092E+01  0.1426E+03
  18.740  0.7620E+01  0.1426E+03
  18.750  0.7200E+01  0.1427E+03
  18.760  0.6833E+01  0.1428E+03
  18.770  0.6723E+01  0.1428E+03
  18.780  0.6260E+01  0.1429E+03
  18.790  0.6070E+01  0.1430E+03
  18.800  0.5882E+01  0.1430E+03
  18.810  0.5698E+01  0.1431E+03
  18.820  0.5516E+01  0.1431E+03
  18.830  0.5335E+01  0.1432E+03
  18.840  0.5198E+01  0.1433E+03
  18.850  0.5092E+01  0.1433E+03
  18.860  0.4885E+01  0.1434E+03
  18.870  0.4614E+01  0.1434E+03
  18.880  0.4350E+01  0.1434E+03
  18.890  0.4176E+01  0.1435E+03
  18.900  0.4025E+01  0.1435E+03
  18.910  0.3880E+01  0.1436E+03
  18.920  0.3776E+01  0.1436E+03
  18.930  0.3755E+01  0.1436E+03
  18.940  0.3842E+01  0.1437E+03
  18.950  0.3940E+01  0.1437E+03
  18.960  0.4061E+01  0.1438E+03
  18.970  0.4315E+01  0.1438E+03
  18.980  0.4348E+01  0.1438E+03
  18.990  0.4382E+01  0.1439E+03
  19.000  0.4393E+01  0.1439E+03
  19.010  0.4335E+01  0.1440E+03
  19.020  0.4351E+01  0.1440E+03
  19.030  0.4431E+01  0.1441E+03
  19.040  0.4527E+01  0.1441E+03
  19.050  0.4651E+01  0.1442E+03
  19.060  0.4958E+01  0.1442E+03
  19.070  0.5126E+01  0.1443E+03
  19.080  0.5121E+01  0.1443E+03
  19.090  0.5083E+01  0.1444E+03
  19.100  0.5257E+01  0.1444E+03
  19.110  0.5729E+01  0.1445E+03
  19.120  0.6828E+01  0.1445E+03
  19.130  0.6032E+01  0.1446E+03
  19.140  0.5825E+01  0.1446E+03
  19.150  0.5615E+01  0.1447E+03
  19.160  0.5222E+01  0.1448E+03
  19.170  0.4876E+01  0.1448E+03
  19.180  0.4574E+01  0.1449E+03
  19.190  0.4327E+01  0.1449E+03
  19.200  0.4122E+01  0.1449E+03
  19.210  0.3955E+01  0.1450E+03
  19.220  0.3804E+01  0.1450E+03
  19.230  0.3657E+01  0.1451E+03
  19.240  0.3542E+01  0.1451E+03
  19.250  0.3439E+01  0.1451E+03
  19.260  0.3415E+01  0.1452E+03
  19.270  0.3410E+01  0.1452E+03
  19.280  0.3411E+01  0.1452E+03
  19.290  0.3419E+01  0.1453E+03
  19.300  0.3431E+01  0.1453E+03
  19.310  0.3446E+01  0.1453E+03
  19.320  0.3462E+01  0.1454E+03
  19.330  0.3471E+01  0.1454E+03
  19.340  0.3480E+01  0.1454E+03
  19.350  0.3491E+01  0.1455E+03
  19.360  0.3505E+01  0.1455E+03
  19.370  0.3523E+01  0.1455E+03
  19.380  0.3548E+01  0.1456E+03
  19.390  0.3553E+01  0.1456E+03
  19.400  0.3414E+01  0.1457E+03
  19.410  0.3375E+01  0.1457E+03
  19.420  0.3384E+01  0.1457E+03
  19.430  0.3407E+01  0.1458E+03
  19.440  0.3426E+01  0.1458E+03
  19.450  0.3446E+01  0.1458E+03
  19.460  0.3465E+01  0.1459E+03
  19.470  0.3478E+01  0.1459E+03
  19.480  0.3489E+01  0.1459E+03
  19.490  0.3621E+01  0.1460E+03
  19.500  0.3823E+01  0.1460E+03
  19.510  0.4029E+01  0.1460E+03
  19.520  0.4203E+01  0.1461E+03
  19.530  0.4351E+01  0.1461E+03
  19.540  0.4490E+01  0.1462E+03
  19.550  0.4602E+01  0.1462E+03
  19.560  0.4688E+01  0.1463E+03
  19.570  0.4744E+01  0.1463E+03
  19.580  0.4765E+01  0.1464E+03
  19.590  0.4753E+01  0.1464E+03
  19.600  0.4714E+01  0.1464E+03
  19.610  0.4603E+01  0.1465E+03
  19.620  0.4551E+01  0.1465E+03
  19.630  0.4572E+01  0.1466E+03
  19.640  0.4595E+01  0.1466E+03
  19.650  0.4611E+01  0.1467E+03
  19.660  0.4539E+01  0.1467E+03
  19.670  0.4413E+01  0.1468E+03
  19.680  0.4291E+01  0.1468E+03
  19.690  0.4168E+01  0.1469E+03
  19.700  0.4013E+01  0.1469E+03
  19.710  0.3791E+01  0.1469E+03
  19.720  0.3746E+01  0.1470E+03
  19.730  0.3706E+01  0.1470E+03
  19.740  0.3661E+01  0.1470E+03
  19.750  0.3617E+01  0.1471E+03
  19.760  0.3572E+01  0.1471E+03
  19.770  0.3525E+01  0.1472E+03
  19.780  0.3480E+01  0.1472E+03
  19.790  0.3450E+01  0.1472E+03
  19.800  0.3430E+01  0.1473E+03
  19.810  0.3420E+01  0.1473E+03
  19.820  0.3418E+01  0.1473E+03
  19.830  0.3422E+01  0.1474E+03
  19.840  0.3431E+01  0.1474E+03
  19.850  0.3449E+01  0.1474E+03
  19.860  0.3505E+01  0.1475E+03
  19.870  0.3639E+01  0.1475E+03
  19.880  0.3881E+01  0.1475E+03
  19.890  0.4040E+01  0.1476E+03
  19.900  0.4127E+01  0.1476E+03
  19.910  0.4189E+01  0.1477E+03
  19.920  0.4002E+01  0.1477E+03
  19.930  0.3799E+01  0.1477E+03
  19.940  0.3627E+01  0.1478E+03
  19.950  0.3416E+01  0.1478E+03
  19.960  0.3299E+01  0.1478E+03
  19.970  0.3223E+01  0.1479E+03
  19.980  0.3172E+01  0.1479E+03
  19.990  0.3122E+01  0.1479E+03
  20.000  0.3079E+01  0.1480E+03
  20.010  0.3043E+01  0.1480E+03
  20.020  0.3016E+01  0.1480E+03
  20.030  0.2998E+01  0.1481E+03
  20.040  0.2986E+01  0.1481E+03
  20.050  0.2976E+01  0.1481E+03
  20.060  0.2968E+01  0.1482E+03
  20.070  0.2962E+01  0.1482E+03
  20.080  0.3009E+01  0.1482E+03
  20.090  0.3174E+01  0.1482E+03
  20.100  0.3382E+01  0.1483E+03
  20.110  0.3504E+01  0.1483E+03
  20.120  0.3617E+01  0.1483E+03
  20.130  0.3717E+01  0.1484E+03
  20.140  0.3761E+01  0.1484E+03
  20.150  0.3770E+01  0.1485E+03
  20.160  0.3781E+01  0.1485E+03
  20.170  0.3793E+01  0.1485E+03
  20.180  0.3805E+01  0.1486E+03
  20.190  0.3818E+01  0.1486E+03
  20.200  0.3832E+01  0.1486E+03
  20.210  0.3846E+01  0.1487E+03
  20.220  0.3861E+01  0.1487E+03
  20.230  0.3876E+01  0.1488E+03
  20.240  0.3889E+01  0.1488E+03
  20.250  0.3901E+01  0.1488E+03
  20.260  0.3910E+01  0.1489E+03
  20.270  0.3918E+01  0.1489E+03
  20.280  0.3924E+01  0.1490E+03
  20.290  0.3929E+01  0.1490E+03
  20.300  0.3931E+01  0.1490E+03
  20.310  0.3932E+01  0.1491E+03
  20.320  0.3928E+01  0.1491E+03
  20.330  0.3916E+01  0.1492E+03
  20.340  0.3902E+01  0.1492E+03
  20.350  0.3888E+01  0.1492E+03
  20.360  0.3874E+01  0.1493E+03
  20.370  0.3859E+01  0.1493E+03
  20.380  0.3836E+01  0.1493E+03
  20.390  0.3794E+01  0.1494E+03
  20.400  0.3747E+01  0.1494E+03
  20.410  0.3700E+01  0.1495E+03
  20.420  0.3650E+01  0.1495E+03
  20.430  0.3598E+01  0.1495E+03
  20.440  0.3545E+01  0.1496E+03
  20.450  0.3496E+01  0.1496E+03
  20.460  0.3514E+01  0.1496E+03
  20.470  0.3635E+01  0.1497E+03
  20.480  0.3813E+01  0.1497E+03
  20.490  0.3971E+01  0.1498E+03
  20.500  0.4099E+01  0.1498E+03
  20.510  0.4228E+01  0.1498E+03
  20.520  0.4366E+01  0.1499E+03
  20.530  0.4509E+01  0.1499E+03
  20.540  0.4702E+01  0.1500E+03
  20.550  0.4958E+01  0.1500E+03
  20.560  0.5215E+01  0.1501E+03
  20.570  0.5440E+01  0.1501E+03
  20.580  0.5300E+01  0.1502E+03
  20.590  0.5067E+01  0.1502E+03
  20.600  0.4834E+01  0.1503E+03
  20.610  0.4579E+01  0.1503E+03
  20.620  0.4356E+01  0.1504E+03
  20.630  0.4132E+01  0.1504E+03
  20.640  0.3903E+01  0.1505E+03
  20.650  0.3706E+01  0.1505E+03
  20.660  0.3586E+01  0.1505E+03
  20.670  0.3662E+01  0.1506E+03
  20.680  0.3909E+01  0.1506E+03
  20.690  0.4314E+01  0.1506E+03
  20.700  0.5303E+01  0.1507E+03
  20.710  0.6531E+01  0.1507E+03
  20.720  0.6533E+01  0.1508E+03
  20.730  0.5566E+01  0.1509E+03
  20.740  0.5477E+01  0.1509E+03
  20.750  0.5376E+01  0.1510E+03
  20.760  0.5291E+01  0.1510E+03
  20.770  0.5212E+01  0.1511E+03
  20.780  0.5147E+01  0.1511E+03
  20.790  0.5139E+01  0.1512E+03
  20.800  0.5209E+01  0.1512E+03
  20.810  0.5320E+01  0.1513E+03
  20.820  0.5418E+01  0.1513E+03
  20.830  0.5485E+01  0.1514E+03
  20.840  0.5550E+01  0.1515E+03
  20.850  0.5606E+01  0.1515E+03
  20.860  0.5686E+01  0.1516E+03
  20.870  0.5826E+01  0.1516E+03
  20.880  0.5974E+01  0.1517E+03
  20.890  0.6239E+01  0.1517E+03
  20.900  0.7270E+01  0.1518E+03
  20.910  0.8480E+01  0.1519E+03
  20.920  0.9016E+01  0.1520E+03
  20.930  0.9078E+01  0.1521E+03
  20.940  0.8889E+01  0.1522E+03
  20.950  0.7979E+01  0.1522E+03
  20.960  0.7173E+01  0.1523E+03
  20.970  0.6914E+01  0.1524E+03
  20.980  0.6906E+01  0.1525E+03
  20.990  0.6737E+01  0.1525E+03
  21.000  0.6562E+01  0.1526E+03
  21.010  0.6437E+01  0.1527E+03
  21.020  0.6297E+01  0.1527E+03
  21.030  0.5874E+01  0.1528E+03
  21.040  0.5430E+01  0.1528E+03
  21.050  0.4965E+01  0.1529E+03
  21.060  0.4565E+01  0.1529E+03
  21.070  0.4238E+01  0.1530E+03
  21.080  0.3979E+01  0.1530E+03
  21.090  0.3771E+01  0.1531E+03
  21.100  0.3633E+01  0.1531E+03
  21.110  0.3564E+01  0.1531E+03
  21.120  0.3539E+01  0.1532E+03
  21.130  0.3567E+01  0.1532E+03
  21.140  0.3627E+01  0.1532E+03
  21.150  0.3689E+01  0.1533E+03
  21.160  0.3752E+01  0.1533E+03
  21.170  0.3820E+01  0.1534E+03
  21.180  0.3866E+01  0.1534E+03
  21.190  0.3830E+01  0.1534E+03
  21.200  0.3748E+01  0.1535E+03
  21.210  0.3714E+01  0.1535E+03
  21.220  0.3712E+01  0.1535E+03
  21.230  0.3716E+01  0.1536E+03
  21.240  0.3721E+01  0.1536E+03
  21.250  0.3687E+01  0.1537E+03
  21.260  0.3650E+01  0.1537E+03
  21.270  0.3657E+01  0.1537E+03
  21.280  0.3607E+01  0.1538E+03
  21.290  0.3593E+01  0.1538E+03
  21.300  0.3626E+01  0.1538E+03
  21.310  0.3690E+01  0.1539E+03
  21.320  0.3766E+01  0.1539E+03
  21.330  0.3848E+01  0.1540E+03
  21.340  0.3949E+01  0.1540E+03
  21.350  0.4090E+01  0.1540E+03
  21.360  0.4258E+01  0.1541E+03
  21.370  0.4440E+01  0.1541E+03
  21.380  0.4702E+01  0.1542E+03
  21.390  0.5128E+01  0.1542E+03
  21.400  0.5540E+01  0.1543E+03
  21.410  0.5733E+01  0.1543E+03
  21.420  0.5806E+01  0.1544E+03
  21.430  0.5692E+01  0.1544E+03
  21.440  0.5655E+01  0.1545E+03
  21.450  0.5626E+01  0.1545E+03
  21.460  0.5618E+01  0.1546E+03
  21.470  0.5628E+01  0.1547E+03
  21.480  0.5629E+01  0.1547E+03
  21.490  0.5612E+01  0.1548E+03
  21.500  0.5495E+01  0.1548E+03
  21.510  0.5332E+01  0.1549E+03
  21.520  0.5144E+01  0.1549E+03
  21.530  0.4929E+01  0.1550E+03
  21.540  0.4734E+01  0.1550E+03
  21.550  0.4538E+01  0.1551E+03
  21.560  0.3776E+01  0.1551E+03
  21.570  0.3432E+01  0.1552E+03
  21.580  0.3268E+01  0.1552E+03
  21.590  0.3118E+01  0.1552E+03
  21.600  0.2998E+01  0.1553E+03
  21.610  0.2895E+01  0.1553E+03
  21.620  0.2809E+01  0.1553E+03
  21.630  0.2739E+01  0.1553E+03
  21.640  0.2671E+01  0.1554E+03
  21.650  0.2603E+01  0.1554E+03
  21.660  0.2540E+01  0.1554E+03
  21.670  0.2486E+01  0.1554E+03
  21.680  0.2433E+01  0.1555E+03
  21.690  0.2382E+01  0.1555E+03
  21.700  0.2335E+01  0.1555E+03
  21.710  0.2294E+01  0.1555E+03
  21.720  0.2258E+01  0.1556E+03
  21.730  0.2229E+01  0.1556E+03
  21.740  0.2206E+01  0.1556E+03
  21.750  0.2194E+01  0.1556E+03
  21.760  0.2194E+01  0.1557E+03
  21.770  0.2201E+01  0.1557E+03
  21.780  0.2171E+01  0.1557E+03
  21.790  0.2137E+01  0.1557E+03
  21.800  0.2120E+01  0.1557E+03
  21.810  0.2105E+01  0.1558E+03
  21.820  0.2090E+01  0.1558E+03
  21.830  0.2079E+01  0.1558E+03
  21.840  0.2074E+01  0.1558E+03
  21.850  0.2078E+01  0.1558E+03
  21.860  0.2092E+01  0.1559E+03
  21.870  0.2114E+01  0.1559E+03
  21.880  0.2141E+01  0.1559E+03
  21.890  0.2170E+01  0.1559E+03
  21.900  0.2217E+01  0.1560E+03
  21.910  0.2314E+01  0.1560E+03
  21.920  0.2458E+01  0.1560E+03
  21.930  0.2629E+01  0.1560E+03
  21.940  0.2733E+01  0.1560E+03
  21.950  0.2790E+01  0.1561E+03
  21.960  0.2856E+01  0.1561E+03
  21.970  0.2955E+01  0.1561E+03
  21.980  0.3057E+01  0.1562E+03
  21.990  0.3150E+01  0.1562E+03
  22.000  0.3234E+01  0.1562E+03
  22.010  0.3297E+01  0.1563E+03
  22.020  0.3356E+01  0.1563E+03
  22.030  0.3414E+01  0.1563E+03
  22.040  0.3467E+01  0.1564E+03
  22.050  0.3508E+01  0.1564E+03
  22.060  0.3541E+01  0.1564E+03
  22.070  0.3568E+01  0.1565E+03
  22.080  0.3589E+01  0.1565E+03
  22.090  0.3610E+01  0.1565E+03
  22.100  0.3632E+01  0.1566E+03
  22.110  0.3666E+01  0.1566E+03
  22.120  0.3711E+01  0.1566E+03
  22.130  0.3729E+01  0.1567E+03
  22.140  0.3748E+01  0.1567E+03
  22.150  0.3769E+01  0.1568E+03
  22.160  0.3791E+01  0.1568E+03
  22.170  0.3831E+01  0.1568E+03
  22.180  0.3871E+01  0.1569E+03
  22.190  0.3823E+01  0.1569E+03
  22.200  0.3860E+01  0.1570E+03
  22.210  0.3926E+01  0.1570E+03
  22.220  0.4012E+01  0.1570E+03
  22.230  0.4114E+01  0.1571E+03
  22.240  0.4231E+01  0.1571E+03
  22.250  0.4322E+01  0.1572E+03
  22.260  0.4409E+01  0.1572E+03
  22.270  0.4515E+01  0.1572E+03
  22.280  0.4594E+01  0.1573E+03
  22.290  0.4644E+01  0.1573E+03
  22.300  0.4673E+01  0.1574E+03
  22.310  0.4728E+01  0.1574E+03
  22.320  0.4806E+01  0.1575E+03
  22.330  0.4838E+01  0.1575E+03
  22.340  0.4950E+01  0.1576E+03
  22.350  0.5083E+01  0.1576E+03
  22.360  0.5255E+01  0.1577E+03
  22.370  0.5261E+01  0.1577E+03
  22.380  0.5156E+01  0.1578E+03
  22.390  0.5015E+01  0.1578E+03
  22.400  0.4933E+01  0.1579E+03
  22.410  0.4889E+01  0.1579E+03
  22.420  0.4809E+01  0.1580E+03
  22.430  0.4814E+01  0.1580E+03
  22.440  0.4884E+01  0.1581E+03
  22.450  0.4971E+01  0.1581E+03
  22.460  0.5044E+01  0.1582E+03
  22.470  0.5096E+01  0.1582E+03
  22.480  0.4884E+01  0.1583E+03
  22.490  0.4777E+01  0.1583E+03
  22.500  0.4860E+01  0.1584E+03
  22.510  0.5139E+01  0.1584E+03
  22.520  0.5679E+01  0.1585E+03
  22.530  0.5990E+01  0.1585E+03
  22.540  0.6100E+01  0.1586E+03
  22.550  0.6192E+01  0.1587E+03
  22.560  0.6386E+01  0.1587E+03
  22.570  0.6612E+01  0.1588E+03
  22.580  0.6873E+01  0.1589E+03
  22.590  0.6956E+01  0.1589E+03
  22.600  0.6832E+01  0.1590E+03
  22.610  0.6684E+01  0.1591E+03
  22.620  0.6600E+01  0.1591E+03
  22.630  0.6517E+01  0.1592E+03
  22.640  0.6489E+01  0.1593E+03
  22.650  0.6508E+01  0.1593E+03
  22.660  0.6578E+01  0.1594E+03
  22.670  0.6723E+01  0.1595E+03
  22.680  0.7010E+01  0.1595E+03
  22.690  0.7239E+01  0.1596E+03
  22.700  0.7152E+01  0.1597E+03
  22.710  0.6937E+01  0.1597E+03
  22.720  0.6740E+01  0.1598E+03
  22.730  0.6567E+01  0.1599E+03
  22.740  0.6400E+01  0.1599E+03
  22.750  0.6177E+01  0.1600E+03
  22.760  0.5966E+01  0.1601E+03
  22.770  0.5760E+01  0.1601E+03
  22.780  0.5588E+01  0.1602E+03
  22.790  0.5448E+01  0.1602E+03
  22.800  0.5342E+01  0.1603E+03
  22.810  0.5257E+01  0.1603E+03
  22.820  0.5201E+01  0.1604E+03
  22.830  0.5192E+01  0.1604E+03
  22.840  0.5234E+01  0.1605E+03
  22.850  0.5526E+01  0.1605E+03
  22.860  0.5815E+01  0.1606E+03
  22.870  0.5894E+01  0.1607E+03
  22.880  0.5797E+01  0.1607E+03
  22.890  0.5733E+01  0.1608E+03
  22.900  0.5614E+01  0.1608E+03
  22.910  0.5542E+01  0.1609E+03
  22.920  0.5518E+01  0.1609E+03
  22.930  0.5488E+01  0.1610E+03
  22.940  0.5442E+01  0.1611E+03
  22.950  0.5352E+01  0.1611E+03
  22.960  0.5205E+01  0.1612E+03
  22.970  0.5031E+01  0.1612E+03
  22.980  0.4993E+01  0.1613E+03
  22.990  0.4979E+01  0.1613E+03
  23.000  0.4966E+01  0.1614E+03
  23.010  0.4948E+01  0.1614E+03
  23.020  0.4915E+01  0.1615E+03
  23.030  0.4922E+01  0.1615E+03
  23.040  0.4844E+01  0.1616E+03
  23.050  0.4699E+01  0.1616E+03
  23.060  0.4712E+01  0.1617E+03
  23.070  0.4718E+01  0.1617E+03
  23.080  0.4665E+01  0.1617E+03
  23.090  0.4625E+01  0.1618E+03
  23.100  0.4632E+01  0.1618E+03
  23.110  0.4634E+01  0.1619E+03
  23.120  0.4623E+01  0.1619E+03
  23.130  0.4573E+01  0.1620E+03
  23.140  0.4552E+01  0.1620E+03
  23.150  0.4595E+01  0.1621E+03
  23.160  0.4751E+01  0.1621E+03
  23.170  0.4969E+01  0.1622E+03
  23.180  0.5149E+01  0.1622E+03
  23.190  0.5314E+01  0.1623E+03
  23.200  0.5461E+01  0.1623E+03
  23.210  0.5622E+01  0.1624E+03
  23.220  0.5771E+01  0.1624E+03
  23.230  0.6085E+01  0.1625E+03
  23.240  0.5891E+01  0.1626E+03
  23.250  0.5900E+01  0.1626E+03
  23.260  0.5976E+01  0.1627E+03
  23.270  0.6129E+01  0.1627E+03
  23.280  0.6293E+01  0.1628E+03
  23.290  0.6188E+01  0.1629E+03
  23.300  0.6368E+01  0.1629E+03
  23.310  0.6528E+01  0.1630E+03
  23.320  0.6567E+01  0.1630E+03
  23.330  0.6615E+01  0.1631E+03
  23.340  0.6644E+01  0.1632E+03
  23.350  0.6657E+01  0.1632E+03
  23.360  0.6685E+01  0.1633E+03
  23.370  0.6703E+01  0.1634E+03
  23.380  0.6793E+01  0.1634E+03
  23.390  0.6812E+01  0.1635E+03
  23.400  0.6837E+01  0.1636E+03
  23.410  0.6935E+01  0.1637E+03
  23.420  0.7064E+01  0.1637E+03
  23.430  0.7160E+01  0.1638E+03
  23.440  0.7222E+01  0.1639E+03
  23.450  0.7244E+01  0.1639E+03
  23.460  0.7196E+01  0.1640E+03
  23.470  0.7127E+01  0.1641E+03
  23.480  0.7094E+01  0.1642E+03
  23.490  0.7077E+01  0.1642E+03
  23.500  0.7052E+01  0.1643E+03
  23.510  0.7017E+01  0.1644E+03
  23.520  0.6972E+01  0.1644E+03
  23.530  0.6919E+01  0.1645E+03
  23.540  0.6882E+01  0.1646E+03
  23.550  0.6834E+01  0.1646E+03
  23.560  0.6755E+01  0.1647E+03
  23.570  0.6648E+01  0.1648E+03
  23.580  0.6527E+01  0.1648E+03
  23.590  0.6263E+01  0.1649E+03
  23.600  0.6131E+01  0.1650E+03
  23.610  0.6037E+01  0.1650E+03
  23.620  0.5970E+01  0.1651E+03
  23.630  0.5879E+01  0.1652E+03
  23.640  0.5773E+01  0.1652E+03
  23.650  0.5683E+01  0.1653E+03
  23.660  0.5621E+01  0.1653E+03
  23.670  0.5575E+01  0.1654E+03
  23.680  0.5537E+01  0.1654E+03
  23.690  0.5498E+01  0.1655E+03
  23.700  0.5438E+01  0.1655E+03
  23.710  0.5374E+01  0.1656E+03
  23.720  0.5308E+01  0.1657E+03
  23.730  0.5242E+01  0.1657E+03
  23.740  0.5181E+01  0.1658E+03
  23.750  0.5124E+01  0.1658E+03
  23.760  0.5062E+01  0.1659E+03
  23.770  0.5003E+01  0.1659E+03
  23.780  0.4941E+01  0.1660E+03
  23.790  0.4878E+01  0.1660E+03
  23.800  0.4822E+01  0.1661E+03
  23.810  0.4761E+01  0.1661E+03
  23.820  0.4694E+01  0.1662E+03
  23.830  0.4654E+01  0.1662E+03
  23.840  0.4710E+01  0.1662E+03
  23.850  0.4723E+01  0.1663E+03
  23.860  0.4710E+01  0.1663E+03
  23.870  0.4702E+01  0.1664E+03
  23.880  0.4693E+01  0.1664E+03
  23.890  0.4679E+01  0.1665E+03
  23.900  0.4658E+01  0.1665E+03
  23.910  0.4640E+01  0.1666E+03
  23.920  0.4647E+01  0.1666E+03
  23.930  0.4568E+01  0.1667E+03
  23.940  0.4410E+01  0.1667E+03
  23.950  0.4323E+01  0.1668E+03
  23.960  0.4233E+01  0.1668E+03
  23.970  0.4135E+01  0.1668E+03
  23.980  0.4043E+01  0.1669E+03
  23.990  0.3962E+01  0.1669E+03
  24.000  0.3896E+01  0.1670E+03
  24.010  0.3848E+01  0.1670E+03
  24.020  0.3929E+01  0.1670E+03
  24.030  0.4022E+01  0.1671E+03
  24.040  0.4027E+01  0.1671E+03
  24.050  0.3998E+01  0.1672E+03
  24.060  0.3957E+01  0.1672E+03
  24.070  0.3917E+01  0.1672E+03
  24.080  0.3864E+01  0.1673E+03
  24.090  0.3808E+01  0.1673E+03
  24.100  0.3783E+01  0.1674E+03
  24.110  0.3763E+01  0.1674E+03
  24.120  0.3747E+01  0.1674E+03
  24.130  0.3731E+01  0.1675E+03
  24.140  0.3715E+01  0.1675E+03
  24.150  0.3690E+01  0.1675E+03
  24.160  0.3659E+01  0.1676E+03
  24.170  0.3633E+01  0.1676E+03
  24.180  0.3628E+01  0.1676E+03
  24.190  0.3657E+01  0.1677E+03
  24.200  0.3710E+01  0.1677E+03
  24.210  0.3782E+01  0.1678E+03
  24.220  0.3873E+01  0.1678E+03
  24.230  0.4046E+01  0.1678E+03
  24.240  0.4406E+01  0.1679E+03
  24.250  0.4749E+01  0.1679E+03
  24.260  0.5068E+01  0.1680E+03
  24.270  0.5362E+01  0.1680E+03
  24.280  0.5612E+01  0.1681E+03
  24.290  0.5812E+01  0.1681E+03
  24.300  0.5991E+01  0.1682E+03
  24.310  0.6150E+01  0.1683E+03
  24.320  0.6320E+01  0.1683E+03
  24.330  0.6353E+01  0.1684E+03
  24.340  0.6092E+01  0.1684E+03
  24.350  0.5695E+01  0.1685E+03
  24.360  0.5413E+01  0.1686E+03
  24.370  0.5104E+01  0.1686E+03
  24.380  0.4879E+01  0.1687E+03
  24.390  0.4770E+01  0.1687E+03
  24.400  0.4707E+01  0.1688E+03
  24.410  0.4645E+01  0.1688E+03
  24.420  0.4579E+01  0.1689E+03
  24.430  0.4509E+01  0.1689E+03
  24.440  0.4455E+01  0.1689E+03
  24.450  0.4412E+01  0.1690E+03
  24.460  0.4378E+01  0.1690E+03
  24.470  0.4378E+01  0.1691E+03
  24.480  0.4398E+01  0.1691E+03
  24.490  0.4425E+01  0.1692E+03
  24.500  0.4456E+01  0.1692E+03
  24.510  0.4487E+01  0.1693E+03
  24.520  0.4518E+01  0.1693E+03
  24.530  0.4549E+01  0.1693E+03
  24.540  0.4577E+01  0.1694E+03
  24.550  0.4622E+01  0.1694E+03
  24.560  0.4698E+01  0.1695E+03
  24.570  0.4755E+01  0.1695E+03
  24.580  0.4791E+01  0.1696E+03
  24.590  0.4814E+01  0.1696E+03
  24.600  0.4831E+01  0.1697E+03
  24.610  0.4922E+01  0.1697E+03
  24.620  0.5041E+01  0.1698E+03
  24.630  0.5118E+01  0.1698E+03
  24.640  0.5164E+01  0.1699E+03
  24.650  0.5193E+01  0.1699E+03
  24.660  0.5263E+01  0.1700E+03
  24.670  0.5383E+01  0.1700E+03
  24.680  0.5515E+01  0.1701E+03
  24.690  0.5660E+01  0.1701E+03
  24.700  0.5816E+01  0.1702E+03
  24.710  0.5982E+01  0.1703E+03
  24.720  0.6160E+01  0.1703E+03
  24.730  0.6338E+01  0.1704E+03
  24.740  0.6508E+01  0.1704E+03
  24.750  0.6668E+01  0.1705E+03
  24.760  0.6867E+01  0.1706E+03
  24.770  0.7023E+01  0.1706E+03
  24.780  0.7079E+01  0.1707E+03
  24.790  0.7092E+01  0.1708E+03
  24.800  0.7106E+01  0.1709E+03
  24.810  0.7124E+01  0.1709E+03
  24.820  0.7132E+01  0.1710E+03
  24.830  0.7148E+01  0.1711E+03
  24.840  0.7174E+01  0.1711E+03
  24.850  0.7212E+01  0.1712E+03
  24.860  0.7256E+01  0.1713E+03
  24.870  0.7305E+01  0.1714E+03
  24.880  0.7359E+01  0.1714E+03
  24.890  0.7360E+01  0.1715E+03
  24.900  0.7202E+01  0.1716E+03
  24.910  0.7063E+01  0.1717E+03
  24.920  0.6946E+01  0.1717E+03
  24.930  0.6877E+01  0.1718E+03
  24.940  0.6751E+01  0.1719E+03
  24.950  0.6658E+01  0.1719E+03
  24.960  0.6616E+01  0.1720E+03
  24.970  0.6373E+01  0.1721E+03
  24.980  0.6217E+01  0.1721E+03
  24.990  0.6117E+01  0.1722E+03
  25.000  0.6008E+01  0.1722E+03
