#  E (eV)   dos(E)     Int dos(E) EFermi =   12.006 eV
   0.000  0.0000E+00  0.4800E+02
   0.010  0.0000E+00  0.4800E+02
   0.020  0.0000E+00  0.4800E+02
   0.030  0.0000E+00  0.4800E+02
   0.040  0.0000E+00  0.4800E+02
   0.050  0.0000E+00  0.4800E+02
   0.060  0.0000E+00  0.4800E+02
   0.070  0.0000E+00  0.4800E+02
   0.080  0.0000E+00  0.4800E+02
   0.090  0.0000E+00  0.4800E+02
   0.100  0.0000E+00  0.4800E+02
   0.110  0.0000E+00  0.4800E+02
   0.120  0.0000E+00  0.4800E+02
   0.130  0.0000E+00  0.4800E+02
   0.140  0.0000E+00  0.4800E+02
   0.150  0.0000E+00  0.4800E+02
   0.160  0.0000E+00  0.4800E+02
   0.170  0.0000E+00  0.4800E+02
   0.180  0.0000E+00  0.4800E+02
   0.190  0.0000E+00  0.4800E+02
   0.200  0.0000E+00  0.4800E+02
   0.210  0.0000E+00  0.4800E+02
   0.220  0.0000E+00  0.4800E+02
   0.230  0.0000E+00  0.4800E+02
   0.240  0.0000E+00  0.4800E+02
   0.250  0.0000E+00  0.4800E+02
   0.260  0.0000E+00  0.4800E+02
   0.270  0.0000E+00  0.4800E+02
   0.280  0.0000E+00  0.4800E+02
   0.290  0.0000E+00  0.4800E+02
   0.300  0.0000E+00  0.4800E+02
   0.310  0.0000E+00  0.4800E+02
   0.320  0.0000E+00  0.4800E+02
   0.330  0.0000E+00  0.4800E+02
   0.340  0.0000E+00  0.4800E+02
   0.350  0.0000E+00  0.4800E+02
   0.360  0.0000E+00  0.4800E+02
   0.370  0.0000E+00  0.4800E+02
   0.380  0.0000E+00  0.4800E+02
   0.390  0.0000E+00  0.4800E+02
   0.400  0.0000E+00  0.4800E+02
   0.410  0.0000E+00  0.4800E+02
   0.420  0.0000E+00  0.4800E+02
   0.430  0.0000E+00  0.4800E+02
   0.440  0.0000E+00  0.4800E+02
   0.450  0.0000E+00  0.4800E+02
   0.460  0.0000E+00  0.4800E+02
   0.470  0.0000E+00  0.4800E+02
   0.480  0.0000E+00  0.4800E+02
   0.490  0.0000E+00  0.4800E+02
   0.500  0.0000E+00  0.4800E+02
   0.510  0.0000E+00  0.4800E+02
   0.520  0.0000E+00  0.4800E+02
   0.530  0.0000E+00  0.4800E+02
   0.540  0.0000E+00  0.4800E+02
   0.550  0.0000E+00  0.4800E+02
   0.560  0.0000E+00  0.4800E+02
   0.570  0.0000E+00  0.4800E+02
   0.580  0.0000E+00  0.4800E+02
   0.590  0.0000E+00  0.4800E+02
   0.600  0.0000E+00  0.4800E+02
   0.610  0.0000E+00  0.4800E+02
   0.620  0.0000E+00  0.4800E+02
   0.630  0.0000E+00  0.4800E+02
   0.640  0.0000E+00  0.4800E+02
   0.650  0.0000E+00  0.4800E+02
   0.660  0.0000E+00  0.4800E+02
   0.670  0.0000E+00  0.4800E+02
   0.680  0.0000E+00  0.4800E+02
   0.690  0.0000E+00  0.4800E+02
   0.700  0.0000E+00  0.4800E+02
   0.710  0.0000E+00  0.4800E+02
   0.720  0.0000E+00  0.4800E+02
   0.730  0.0000E+00  0.4800E+02
   0.740  0.0000E+00  0.4800E+02
   0.750  0.0000E+00  0.4800E+02
   0.760  0.0000E+00  0.4800E+02
   0.770  0.0000E+00  0.4800E+02
   0.780  0.0000E+00  0.4800E+02
   0.790  0.0000E+00  0.4800E+02
   0.800  0.0000E+00  0.4800E+02
   0.810  0.0000E+00  0.4800E+02
   0.820  0.0000E+00  0.4800E+02
   0.830  0.0000E+00  0.4800E+02
   0.840  0.0000E+00  0.4800E+02
   0.850  0.0000E+00  0.4800E+02
   0.860  0.0000E+00  0.4800E+02
   0.870  0.0000E+00  0.4800E+02
   0.880  0.0000E+00  0.4800E+02
   0.890  0.0000E+00  0.4800E+02
   0.900  0.0000E+00  0.4800E+02
   0.910  0.0000E+00  0.4800E+02
   0.920  0.0000E+00  0.4800E+02
   0.930  0.0000E+00  0.4800E+02
   0.940  0.0000E+00  0.4800E+02
   0.950  0.0000E+00  0.4800E+02
   0.960  0.0000E+00  0.4800E+02
   0.970  0.0000E+00  0.4800E+02
   0.980  0.0000E+00  0.4800E+02
   0.990  0.0000E+00  0.4800E+02
   1.000  0.0000E+00  0.4800E+02
   1.010  0.0000E+00  0.4800E+02
   1.020  0.0000E+00  0.4800E+02
   1.030  0.0000E+00  0.4800E+02
   1.040  0.0000E+00  0.4800E+02
   1.050  0.0000E+00  0.4800E+02
   1.060  0.0000E+00  0.4800E+02
   1.070  0.0000E+00  0.4800E+02
   1.080  0.0000E+00  0.4800E+02
   1.090  0.0000E+00  0.4800E+02
   1.100  0.0000E+00  0.4800E+02
   1.110  0.0000E+00  0.4800E+02
   1.120  0.0000E+00  0.4800E+02
   1.130  0.0000E+00  0.4800E+02
   1.140  0.0000E+00  0.4800E+02
   1.150  0.0000E+00  0.4800E+02
   1.160  0.0000E+00  0.4800E+02
   1.170  0.0000E+00  0.4800E+02
   1.180  0.0000E+00  0.4800E+02
   1.190  0.0000E+00  0.4800E+02
   1.200  0.0000E+00  0.4800E+02
   1.210  0.0000E+00  0.4800E+02
   1.220  0.0000E+00  0.4800E+02
   1.230  0.0000E+00  0.4800E+02
   1.240  0.0000E+00  0.4800E+02
   1.250  0.0000E+00  0.4800E+02
   1.260  0.0000E+00  0.4800E+02
   1.270  0.0000E+00  0.4800E+02
   1.280  0.0000E+00  0.4800E+02
   1.290  0.0000E+00  0.4800E+02
   1.300  0.0000E+00  0.4800E+02
   1.310  0.0000E+00  0.4800E+02
   1.320  0.0000E+00  0.4800E+02
   1.330  0.0000E+00  0.4800E+02
   1.340  0.0000E+00  0.4800E+02
   1.350  0.0000E+00  0.4800E+02
   1.360  0.0000E+00  0.4800E+02
   1.370  0.0000E+00  0.4800E+02
   1.380  0.0000E+00  0.4800E+02
   1.390  0.0000E+00  0.4800E+02
   1.400  0.0000E+00  0.4800E+02
   1.410  0.0000E+00  0.4800E+02
   1.420  0.0000E+00  0.4800E+02
   1.430  0.0000E+00  0.4800E+02
   1.440  0.0000E+00  0.4800E+02
   1.450  0.0000E+00  0.4800E+02
   1.460  0.0000E+00  0.4800E+02
   1.470  0.0000E+00  0.4800E+02
   1.480  0.0000E+00  0.4800E+02
   1.490  0.0000E+00  0.4800E+02
   1.500  0.0000E+00  0.4800E+02
   1.510  0.0000E+00  0.4800E+02
   1.520  0.0000E+00  0.4800E+02
   1.530  0.0000E+00  0.4800E+02
   1.540  0.0000E+00  0.4800E+02
   1.550  0.0000E+00  0.4800E+02
   1.560  0.0000E+00  0.4800E+02
   1.570  0.0000E+00  0.4800E+02
   1.580  0.0000E+00  0.4800E+02
   1.590  0.0000E+00  0.4800E+02
   1.600  0.0000E+00  0.4800E+02
   1.610  0.0000E+00  0.4800E+02
   1.620  0.0000E+00  0.4800E+02
   1.630  0.0000E+00  0.4800E+02
   1.640  0.0000E+00  0.4800E+02
   1.650  0.0000E+00  0.4800E+02
   1.660  0.0000E+00  0.4800E+02
   1.670  0.0000E+00  0.4800E+02
   1.680  0.0000E+00  0.4800E+02
   1.690  0.0000E+00  0.4800E+02
   1.700  0.0000E+00  0.4800E+02
   1.710  0.0000E+00  0.4800E+02
   1.720  0.0000E+00  0.4800E+02
   1.730  0.0000E+00  0.4800E+02
   1.740  0.0000E+00  0.4800E+02
   1.750  0.0000E+00  0.4800E+02
   1.760  0.0000E+00  0.4800E+02
   1.770  0.0000E+00  0.4800E+02
   1.780  0.0000E+00  0.4800E+02
   1.790  0.0000E+00  0.4800E+02
   1.800  0.0000E+00  0.4800E+02
   1.810  0.0000E+00  0.4800E+02
   1.820  0.0000E+00  0.4800E+02
   1.830  0.0000E+00  0.4800E+02
   1.840  0.0000E+00  0.4800E+02
   1.850  0.0000E+00  0.4800E+02
   1.860  0.0000E+00  0.4800E+02
   1.870  0.0000E+00  0.4800E+02
   1.880  0.0000E+00  0.4800E+02
   1.890  0.0000E+00  0.4800E+02
   1.900  0.0000E+00  0.4800E+02
   1.910  0.0000E+00  0.4800E+02
   1.920  0.0000E+00  0.4800E+02
   1.930  0.0000E+00  0.4800E+02
   1.940  0.0000E+00  0.4800E+02
   1.950  0.0000E+00  0.4800E+02
   1.960  0.0000E+00  0.4800E+02
   1.970  0.0000E+00  0.4800E+02
   1.980  0.0000E+00  0.4800E+02
   1.990  0.0000E+00  0.4800E+02
   2.000  0.0000E+00  0.4800E+02
   2.010  0.0000E+00  0.4800E+02
   2.020  0.0000E+00  0.4800E+02
   2.030  0.0000E+00  0.4800E+02
   2.040  0.0000E+00  0.4800E+02
   2.050  0.0000E+00  0.4800E+02
   2.060  0.0000E+00  0.4800E+02
   2.070  0.0000E+00  0.4800E+02
   2.080  0.0000E+00  0.4800E+02
   2.090  0.0000E+00  0.4800E+02
   2.100  0.0000E+00  0.4800E+02
   2.110  0.0000E+00  0.4800E+02
   2.120  0.0000E+00  0.4800E+02
   2.130  0.0000E+00  0.4800E+02
   2.140  0.0000E+00  0.4800E+02
   2.150  0.0000E+00  0.4800E+02
   2.160  0.0000E+00  0.4800E+02
   2.170  0.0000E+00  0.4800E+02
   2.180  0.0000E+00  0.4800E+02
   2.190  0.0000E+00  0.4800E+02
   2.200  0.0000E+00  0.4800E+02
   2.210  0.0000E+00  0.4800E+02
   2.220  0.0000E+00  0.4800E+02
   2.230  0.0000E+00  0.4800E+02
   2.240  0.0000E+00  0.4800E+02
   2.250  0.0000E+00  0.4800E+02
   2.260  0.0000E+00  0.4800E+02
   2.270  0.0000E+00  0.4800E+02
   2.280  0.0000E+00  0.4800E+02
   2.290  0.0000E+00  0.4800E+02
   2.300  0.0000E+00  0.4800E+02
   2.310  0.0000E+00  0.4800E+02
   2.320  0.0000E+00  0.4800E+02
   2.330  0.0000E+00  0.4800E+02
   2.340  0.0000E+00  0.4800E+02
   2.350  0.0000E+00  0.4800E+02
   2.360  0.0000E+00  0.4800E+02
   2.370  0.0000E+00  0.4800E+02
   2.380  0.0000E+00  0.4800E+02
   2.390  0.0000E+00  0.4800E+02
   2.400  0.0000E+00  0.4800E+02
   2.410  0.0000E+00  0.4800E+02
   2.420  0.0000E+00  0.4800E+02
   2.430  0.0000E+00  0.4800E+02
   2.440  0.0000E+00  0.4800E+02
   2.450  0.0000E+00  0.4800E+02
   2.460  0.0000E+00  0.4800E+02
   2.470  0.0000E+00  0.4800E+02
   2.480  0.0000E+00  0.4800E+02
   2.490  0.0000E+00  0.4800E+02
   2.500  0.0000E+00  0.4800E+02
   2.510  0.0000E+00  0.4800E+02
   2.520  0.0000E+00  0.4800E+02
   2.530  0.0000E+00  0.4800E+02
   2.540  0.0000E+00  0.4800E+02
   2.550  0.0000E+00  0.4800E+02
   2.560  0.0000E+00  0.4800E+02
   2.570  0.0000E+00  0.4800E+02
   2.580  0.0000E+00  0.4800E+02
   2.590  0.0000E+00  0.4800E+02
   2.600  0.0000E+00  0.4800E+02
   2.610  0.0000E+00  0.4800E+02
   2.620  0.0000E+00  0.4800E+02
   2.630  0.0000E+00  0.4800E+02
   2.640  0.0000E+00  0.4800E+02
   2.650  0.0000E+00  0.4800E+02
   2.660  0.0000E+00  0.4800E+02
   2.670  0.0000E+00  0.4800E+02
   2.680  0.0000E+00  0.4800E+02
   2.690  0.0000E+00  0.4800E+02
   2.700  0.0000E+00  0.4800E+02
   2.710  0.0000E+00  0.4800E+02
   2.720  0.0000E+00  0.4800E+02
   2.730  0.0000E+00  0.4800E+02
   2.740  0.0000E+00  0.4800E+02
   2.750  0.0000E+00  0.4800E+02
   2.760  0.0000E+00  0.4800E+02
   2.770  0.0000E+00  0.4800E+02
   2.780  0.0000E+00  0.4800E+02
   2.790  0.0000E+00  0.4800E+02
   2.800  0.0000E+00  0.4800E+02
   2.810  0.0000E+00  0.4800E+02
   2.820  0.0000E+00  0.4800E+02
   2.830  0.0000E+00  0.4800E+02
   2.840  0.0000E+00  0.4800E+02
   2.850  0.0000E+00  0.4800E+02
   2.860  0.0000E+00  0.4800E+02
   2.870  0.0000E+00  0.4800E+02
   2.880  0.0000E+00  0.4800E+02
   2.890  0.0000E+00  0.4800E+02
   2.900  0.0000E+00  0.4800E+02
   2.910  0.0000E+00  0.4800E+02
   2.920  0.0000E+00  0.4800E+02
   2.930  0.0000E+00  0.4800E+02
   2.940  0.0000E+00  0.4800E+02
   2.950  0.0000E+00  0.4800E+02
   2.960  0.0000E+00  0.4800E+02
   2.970  0.0000E+00  0.4800E+02
   2.980  0.0000E+00  0.4800E+02
   2.990  0.0000E+00  0.4800E+02
   3.000  0.0000E+00  0.4800E+02
   3.010  0.0000E+00  0.4800E+02
   3.020  0.0000E+00  0.4800E+02
   3.030  0.0000E+00  0.4800E+02
   3.040  0.0000E+00  0.4800E+02
   3.050  0.0000E+00  0.4800E+02
   3.060  0.0000E+00  0.4800E+02
   3.070  0.0000E+00  0.4800E+02
   3.080  0.0000E+00  0.4800E+02
   3.090  0.0000E+00  0.4800E+02
   3.100  0.0000E+00  0.4800E+02
   3.110  0.0000E+00  0.4800E+02
   3.120  0.0000E+00  0.4800E+02
   3.130  0.0000E+00  0.4800E+02
   3.140  0.0000E+00  0.4800E+02
   3.150  0.0000E+00  0.4800E+02
   3.160  0.0000E+00  0.4800E+02
   3.170  0.0000E+00  0.4800E+02
   3.180  0.0000E+00  0.4800E+02
   3.190  0.0000E+00  0.4800E+02
   3.200  0.0000E+00  0.4800E+02
   3.210  0.0000E+00  0.4800E+02
   3.220  0.0000E+00  0.4800E+02
   3.230  0.0000E+00  0.4800E+02
   3.240  0.0000E+00  0.4800E+02
   3.250  0.0000E+00  0.4800E+02
   3.260  0.0000E+00  0.4800E+02
   3.270  0.0000E+00  0.4800E+02
   3.280  0.0000E+00  0.4800E+02
   3.290  0.0000E+00  0.4800E+02
   3.300  0.0000E+00  0.4800E+02
   3.310  0.0000E+00  0.4800E+02
   3.320  0.0000E+00  0.4800E+02
   3.330  0.0000E+00  0.4800E+02
   3.340  0.0000E+00  0.4800E+02
   3.350  0.0000E+00  0.4800E+02
   3.360  0.0000E+00  0.4800E+02
   3.370  0.0000E+00  0.4800E+02
   3.380  0.0000E+00  0.4800E+02
   3.390  0.0000E+00  0.4800E+02
   3.400  0.0000E+00  0.4800E+02
   3.410  0.0000E+00  0.4800E+02
   3.420  0.0000E+00  0.4800E+02
   3.430  0.0000E+00  0.4800E+02
   3.440  0.0000E+00  0.4800E+02
   3.450  0.0000E+00  0.4800E+02
   3.460  0.0000E+00  0.4800E+02
   3.470  0.0000E+00  0.4800E+02
   3.480  0.0000E+00  0.4800E+02
   3.490  0.0000E+00  0.4800E+02
   3.500  0.0000E+00  0.4800E+02
   3.510  0.0000E+00  0.4800E+02
   3.520  0.0000E+00  0.4800E+02
   3.530  0.0000E+00  0.4800E+02
   3.540  0.0000E+00  0.4800E+02
   3.550  0.0000E+00  0.4800E+02
   3.560  0.0000E+00  0.4800E+02
   3.570  0.0000E+00  0.4800E+02
   3.580  0.0000E+00  0.4800E+02
   3.590  0.0000E+00  0.4800E+02
   3.600  0.0000E+00  0.4800E+02
   3.610  0.0000E+00  0.4800E+02
   3.620  0.0000E+00  0.4800E+02
   3.630  0.0000E+00  0.4800E+02
   3.640  0.0000E+00  0.4800E+02
   3.650  0.0000E+00  0.4800E+02
   3.660  0.0000E+00  0.4800E+02
   3.670  0.0000E+00  0.4800E+02
   3.680  0.0000E+00  0.4800E+02
   3.690  0.0000E+00  0.4800E+02
   3.700  0.0000E+00  0.4800E+02
   3.710  0.0000E+00  0.4800E+02
   3.720  0.0000E+00  0.4800E+02
   3.730  0.0000E+00  0.4800E+02
   3.740  0.0000E+00  0.4800E+02
   3.750  0.0000E+00  0.4800E+02
   3.760  0.0000E+00  0.4800E+02
   3.770  0.0000E+00  0.4800E+02
   3.780  0.0000E+00  0.4800E+02
   3.790  0.0000E+00  0.4800E+02
   3.800  0.0000E+00  0.4800E+02
   3.810  0.0000E+00  0.4800E+02
   3.820  0.0000E+00  0.4800E+02
   3.830  0.0000E+00  0.4800E+02
   3.840  0.0000E+00  0.4800E+02
   3.850  0.0000E+00  0.4800E+02
   3.860  0.0000E+00  0.4800E+02
   3.870  0.0000E+00  0.4800E+02
   3.880  0.0000E+00  0.4800E+02
   3.890  0.0000E+00  0.4800E+02
   3.900  0.0000E+00  0.4800E+02
   3.910  0.0000E+00  0.4800E+02
   3.920  0.0000E+00  0.4800E+02
   3.930  0.0000E+00  0.4800E+02
   3.940  0.0000E+00  0.4800E+02
   3.950  0.0000E+00  0.4800E+02
   3.960  0.0000E+00  0.4800E+02
   3.970  0.0000E+00  0.4800E+02
   3.980  0.0000E+00  0.4800E+02
   3.990  0.0000E+00  0.4800E+02
   4.000  0.0000E+00  0.4800E+02
   4.010  0.0000E+00  0.4800E+02
   4.020  0.0000E+00  0.4800E+02
   4.030  0.0000E+00  0.4800E+02
   4.040  0.0000E+00  0.4800E+02
   4.050  0.0000E+00  0.4800E+02
   4.060  0.0000E+00  0.4800E+02
   4.070  0.0000E+00  0.4800E+02
   4.080  0.0000E+00  0.4800E+02
   4.090  0.0000E+00  0.4800E+02
   4.100  0.0000E+00  0.4800E+02
   4.110  0.0000E+00  0.4800E+02
   4.120  0.0000E+00  0.4800E+02
   4.130  0.0000E+00  0.4800E+02
   4.140  0.0000E+00  0.4800E+02
   4.150  0.0000E+00  0.4800E+02
   4.160  0.0000E+00  0.4800E+02
   4.170  0.0000E+00  0.4800E+02
   4.180  0.0000E+00  0.4800E+02
   4.190  0.0000E+00  0.4800E+02
   4.200  0.0000E+00  0.4800E+02
   4.210  0.0000E+00  0.4800E+02
   4.220  0.0000E+00  0.4800E+02
   4.230  0.0000E+00  0.4800E+02
   4.240  0.0000E+00  0.4800E+02
   4.250  0.0000E+00  0.4800E+02
   4.260  0.0000E+00  0.4800E+02
   4.270  0.0000E+00  0.4800E+02
   4.280  0.0000E+00  0.4800E+02
   4.290  0.0000E+00  0.4800E+02
   4.300  0.0000E+00  0.4800E+02
   4.310  0.0000E+00  0.4800E+02
   4.320  0.0000E+00  0.4800E+02
   4.330  0.0000E+00  0.4800E+02
   4.340  0.0000E+00  0.4800E+02
   4.350  0.1768E+01  0.4801E+02
   4.360  0.1349E+01  0.4802E+02
   4.370  0.7660E+00  0.4807E+02
   4.380  0.7884E+00  0.4808E+02
   4.390  0.8109E+00  0.4808E+02
   4.400  0.8334E+00  0.4809E+02
   4.410  0.8558E+00  0.4810E+02
   4.420  0.8783E+00  0.4811E+02
   4.430  0.9007E+00  0.4812E+02
   4.440  0.9232E+00  0.4813E+02
   4.450  0.9456E+00  0.4814E+02
   4.460  0.9681E+00  0.4815E+02
   4.470  0.9906E+00  0.4816E+02
   4.480  0.1013E+01  0.4817E+02
   4.490  0.1035E+01  0.4818E+02
   4.500  0.1058E+01  0.4819E+02
   4.510  0.1080E+01  0.4820E+02
   4.520  0.1103E+01  0.4821E+02
   4.530  0.1125E+01  0.4822E+02
   4.540  0.1148E+01  0.4823E+02
   4.550  0.1170E+01  0.4824E+02
   4.560  0.1193E+01  0.4825E+02
   4.570  0.1215E+01  0.4827E+02
   4.580  0.1238E+01  0.4828E+02
   4.590  0.1260E+01  0.4829E+02
   4.600  0.1282E+01  0.4830E+02
   4.610  0.1305E+01  0.4832E+02
   4.620  0.1327E+01  0.4833E+02
   4.630  0.1350E+01  0.4834E+02
   4.640  0.1372E+01  0.4836E+02
   4.650  0.1395E+01  0.4837E+02
   4.660  0.1417E+01  0.4838E+02
   4.670  0.1431E+01  0.4840E+02
   4.680  0.1433E+01  0.4841E+02
   4.690  0.1438E+01  0.4843E+02
   4.700  0.1438E+01  0.4844E+02
   4.710  0.1437E+01  0.4846E+02
   4.720  0.1407E+01  0.4847E+02
   4.730  0.1421E+01  0.4848E+02
   4.740  0.1435E+01  0.4850E+02
   4.750  0.1450E+01  0.4851E+02
   4.760  0.1464E+01  0.4853E+02
   4.770  0.1479E+01  0.4854E+02
   4.780  0.1493E+01  0.4856E+02
   4.790  0.1507E+01  0.4857E+02
   4.800  0.1522E+01  0.4859E+02
   4.810  0.1536E+01  0.4860E+02
   4.820  0.1551E+01  0.4862E+02
   4.830  0.1565E+01  0.4863E+02
   4.840  0.1579E+01  0.4865E+02
   4.850  0.1594E+01  0.4867E+02
   4.860  0.1608E+01  0.4868E+02
   4.870  0.1623E+01  0.4870E+02
   4.880  0.1637E+01  0.4871E+02
   4.890  0.1652E+01  0.4873E+02
   4.900  0.1666E+01  0.4875E+02
   4.910  0.1680E+01  0.4876E+02
   4.920  0.1695E+01  0.4878E+02
   4.930  0.1709E+01  0.4880E+02
   4.940  0.1724E+01  0.4882E+02
   4.950  0.1738E+01  0.4883E+02
   4.960  0.1753E+01  0.4885E+02
   4.970  0.1767E+01  0.4887E+02
   4.980  0.1782E+01  0.4889E+02
   4.990  0.1796E+01  0.4890E+02
   5.000  0.1810E+01  0.4892E+02
   5.010  0.1825E+01  0.4894E+02
   5.020  0.1839E+01  0.4896E+02
   5.030  0.1854E+01  0.4898E+02
   5.040  0.1868E+01  0.4899E+02
   5.050  0.1882E+01  0.4901E+02
   5.060  0.1896E+01  0.4903E+02
   5.070  0.1910E+01  0.4905E+02
   5.080  0.2045E+01  0.4907E+02
   5.090  0.2137E+01  0.4909E+02
   5.100  0.2255E+01  0.4911E+02
   5.110  0.2345E+01  0.4914E+02
   5.120  0.2573E+01  0.4916E+02
   5.130  0.2688E+01  0.4919E+02
   5.140  0.2737E+01  0.4921E+02
   5.150  0.2787E+01  0.4924E+02
   5.160  0.2837E+01  0.4927E+02
   5.170  0.2886E+01  0.4930E+02
   5.180  0.2936E+01  0.4933E+02
   5.190  0.2985E+01  0.4936E+02
   5.200  0.3035E+01  0.4939E+02
   5.210  0.3085E+01  0.4942E+02
   5.220  0.3134E+01  0.4945E+02
   5.230  0.3184E+01  0.4948E+02
   5.240  0.3234E+01  0.4951E+02
   5.250  0.3283E+01  0.4955E+02
   5.260  0.3333E+01  0.4958E+02
   5.270  0.3382E+01  0.4961E+02
   5.280  0.3432E+01  0.4965E+02
   5.290  0.8978E+01  0.4969E+02
   5.300  0.5907E+01  0.4976E+02
   5.310  0.6263E+01  0.4982E+02
   5.320  0.1126E+02  0.4989E+02
   5.330  0.3020E+01  0.4994E+02
   5.340  0.2997E+01  0.4997E+02
   5.350  0.2974E+01  0.5000E+02
   5.360  0.2952E+01  0.5003E+02
   5.370  0.2926E+01  0.5006E+02
   5.380  0.2899E+01  0.5008E+02
   5.390  0.2874E+01  0.5011E+02
   5.400  0.2848E+01  0.5014E+02
   5.410  0.2821E+01  0.5017E+02
   5.420  0.2795E+01  0.5020E+02
   5.430  0.2768E+01  0.5023E+02
   5.440  0.2739E+01  0.5025E+02
   5.450  0.2713E+01  0.5028E+02
   5.460  0.2684E+01  0.5031E+02
   5.470  0.2655E+01  0.5033E+02
   5.480  0.2625E+01  0.5036E+02
   5.490  0.2594E+01  0.5039E+02
   5.500  0.2561E+01  0.5041E+02
   5.510  0.2525E+01  0.5044E+02
   5.520  0.2489E+01  0.5046E+02
   5.530  0.2457E+01  0.5049E+02
   5.540  0.2424E+01  0.5051E+02
   5.550  0.2391E+01  0.5054E+02
   5.560  0.2358E+01  0.5056E+02
   5.570  0.2325E+01  0.5058E+02
   5.580  0.2292E+01  0.5061E+02
   5.590  0.2260E+01  0.5063E+02
   5.600  0.2227E+01  0.5065E+02
   5.610  0.2146E+01  0.5067E+02
   5.620  0.2087E+01  0.5069E+02
   5.630  0.2037E+01  0.5072E+02
   5.640  0.1979E+01  0.5074E+02
   5.650  0.1957E+01  0.5076E+02
   5.660  0.1912E+01  0.5077E+02
   5.670  0.1874E+01  0.5079E+02
   5.680  0.1833E+01  0.5081E+02
   5.690  0.1781E+01  0.5083E+02
   5.700  0.1768E+01  0.5085E+02
   5.710  0.1756E+01  0.5087E+02
   5.720  0.1743E+01  0.5088E+02
   5.730  0.1731E+01  0.5090E+02
   5.740  0.1718E+01  0.5092E+02
   5.750  0.1705E+01  0.5093E+02
   5.760  0.1693E+01  0.5095E+02
   5.770  0.1680E+01  0.5097E+02
   5.780  0.1667E+01  0.5099E+02
   5.790  0.1655E+01  0.5100E+02
   5.800  0.1642E+01  0.5102E+02
   5.810  0.1630E+01  0.5103E+02
   5.820  0.1617E+01  0.5105E+02
   5.830  0.1605E+01  0.5107E+02
   5.840  0.1593E+01  0.5108E+02
   5.850  0.1582E+01  0.5110E+02
   5.860  0.1572E+01  0.5111E+02
   5.870  0.1561E+01  0.5113E+02
   5.880  0.1551E+01  0.5115E+02
   5.890  0.1541E+01  0.5116E+02
   5.900  0.1532E+01  0.5118E+02
   5.910  0.1523E+01  0.5119E+02
   5.920  0.1514E+01  0.5121E+02
   5.930  0.1505E+01  0.5122E+02
   5.940  0.1497E+01  0.5124E+02
   5.950  0.1489E+01  0.5125E+02
   5.960  0.1482E+01  0.5127E+02
   5.970  0.1475E+01  0.5128E+02
   5.980  0.1469E+01  0.5130E+02
   5.990  0.1463E+01  0.5131E+02
   6.000  0.3239E+01  0.5139E+02
   6.010  0.3375E+01  0.5143E+02
   6.020  0.3512E+01  0.5146E+02
   6.030  0.3649E+01  0.5150E+02
   6.040  0.3786E+01  0.5153E+02
   6.050  0.3923E+01  0.5157E+02
   6.060  0.4060E+01  0.5161E+02
   6.070  0.4197E+01  0.5165E+02
   6.080  0.4334E+01  0.5170E+02
   6.090  0.4471E+01  0.5174E+02
   6.100  0.4608E+01  0.5179E+02
   6.110  0.4746E+01  0.5183E+02
   6.120  0.4884E+01  0.5188E+02
   6.130  0.5020E+01  0.5193E+02
   6.140  0.5024E+01  0.5198E+02
   6.150  0.4726E+01  0.5203E+02
   6.160  0.4588E+01  0.5208E+02
   6.170  0.4453E+01  0.5212E+02
   6.180  0.4313E+01  0.5217E+02
   6.190  0.4171E+01  0.5221E+02
   6.200  0.4022E+01  0.5225E+02
   6.210  0.3870E+01  0.5229E+02
   6.220  0.3740E+01  0.5233E+02
   6.230  0.7274E+01  0.5237E+02
   6.240  0.6306E+01  0.5246E+02
   6.250  0.5973E+01  0.5253E+02
   6.260  0.6147E+01  0.5259E+02
   6.270  0.6322E+01  0.5265E+02
   6.280  0.6497E+01  0.5272E+02
   6.290  0.6671E+01  0.5278E+02
   6.300  0.6846E+01  0.5285E+02
   6.310  0.7021E+01  0.5292E+02
   6.320  0.7196E+01  0.5299E+02
   6.330  0.7370E+01  0.5306E+02
   6.340  0.7545E+01  0.5314E+02
   6.350  0.7719E+01  0.5321E+02
   6.360  0.7244E+01  0.5329E+02
   6.370  0.6981E+01  0.5336E+02
   6.380  0.6593E+01  0.5343E+02
   6.390  0.6529E+01  0.5349E+02
   6.400  0.6575E+01  0.5356E+02
   6.410  0.6621E+01  0.5362E+02
   6.420  0.6667E+01  0.5369E+02
   6.430  0.6713E+01  0.5376E+02
   6.440  0.7207E+01  0.5383E+02
   6.450  0.7667E+01  0.5390E+02
   6.460  0.7940E+01  0.5398E+02
   6.470  0.8515E+01  0.5406E+02
   6.480  0.8253E+01  0.5414E+02
   6.490  0.8041E+01  0.5422E+02
   6.500  0.7961E+01  0.5430E+02
   6.510  0.1312E+02  0.5441E+02
   6.520  0.7553E+01  0.5452E+02
   6.530  0.7810E+01  0.5460E+02
   6.540  0.8077E+01  0.5468E+02
   6.550  0.8395E+01  0.5476E+02
   6.560  0.8626E+01  0.5484E+02
   6.570  0.8857E+01  0.5493E+02
   6.580  0.1141E+02  0.5505E+02
   6.590  0.1125E+02  0.5517E+02
   6.600  0.1287E+02  0.5529E+02
   6.610  0.1433E+02  0.5542E+02
   6.620  0.1477E+02  0.5558E+02
   6.630  0.1501E+02  0.5572E+02
   6.640  0.1462E+02  0.5588E+02
   6.650  0.1173E+02  0.5601E+02
   6.660  0.9179E+01  0.5611E+02
   6.670  0.9063E+01  0.5620E+02
   6.680  0.8957E+01  0.5629E+02
   6.690  0.8837E+01  0.5638E+02
   6.700  0.1041E+02  0.5648E+02
   6.710  0.1015E+02  0.5659E+02
   6.720  0.1033E+02  0.5669E+02
   6.730  0.1048E+02  0.5679E+02
   6.740  0.1111E+02  0.5690E+02
   6.750  0.8579E+01  0.5700E+02
   6.760  0.6095E+01  0.5711E+02
   6.770  0.7613E+01  0.5717E+02
   6.780  0.9722E+01  0.5726E+02
   6.790  0.9603E+01  0.5736E+02
   6.800  0.1029E+02  0.5746E+02
   6.810  0.5036E+01  0.5754E+02
   6.820  0.5305E+01  0.5759E+02
   6.830  0.5546E+01  0.5764E+02
   6.840  0.5790E+01  0.5770E+02
   6.850  0.6039E+01  0.5776E+02
   6.860  0.6291E+01  0.5782E+02
   6.870  0.6548E+01  0.5788E+02
   6.880  0.7189E+01  0.5795E+02
   6.890  0.7408E+01  0.5803E+02
   6.900  0.8172E+01  0.5812E+02
   6.910  0.7949E+01  0.5820E+02
   6.920  0.7602E+01  0.5828E+02
   6.930  0.6206E+01  0.5836E+02
   6.940  0.6344E+01  0.5842E+02
   6.950  0.8432E+01  0.5852E+02
   6.960  0.8517E+01  0.5860E+02
   6.970  0.8811E+01  0.5869E+02
   6.980  0.9124E+01  0.5878E+02
   6.990  0.8839E+01  0.5886E+02
   7.000  0.6800E+01  0.5895E+02
   7.010  0.6364E+01  0.5902E+02
   7.020  0.6009E+01  0.5908E+02
   7.030  0.5758E+01  0.5914E+02
   7.040  0.5651E+01  0.5919E+02
   7.050  0.5692E+01  0.5925E+02
   7.060  0.5637E+01  0.5931E+02
   7.070  0.5817E+01  0.5937E+02
   7.080  0.5987E+01  0.5943E+02
   7.090  0.6672E+01  0.5949E+02
   7.100  0.7048E+01  0.5956E+02
   7.110  0.7719E+01  0.5963E+02
   7.120  0.7872E+01  0.5971E+02
   7.130  0.7999E+01  0.5979E+02
   7.140  0.8100E+01  0.5987E+02
   7.150  0.8165E+01  0.5995E+02
   7.160  0.9030E+01  0.6006E+02
   7.170  0.8956E+01  0.6015E+02
   7.180  0.8965E+01  0.6024E+02
   7.190  0.8743E+01  0.6033E+02
   7.200  0.7959E+01  0.6042E+02
   7.210  0.8008E+01  0.6050E+02
   7.220  0.8054E+01  0.6058E+02
   7.230  0.8313E+01  0.6067E+02
   7.240  0.8373E+01  0.6076E+02
   7.250  0.8435E+01  0.6084E+02
   7.260  0.8574E+01  0.6093E+02
   7.270  0.8655E+01  0.6101E+02
   7.280  0.8788E+01  0.6110E+02
   7.290  0.9348E+01  0.6119E+02
   7.300  0.1412E+02  0.6131E+02
   7.310  0.1185E+02  0.6146E+02
   7.320  0.1144E+02  0.6157E+02
   7.330  0.1157E+02  0.6169E+02
   7.340  0.1191E+02  0.6181E+02
   7.350  0.1556E+02  0.6193E+02
   7.360  0.1071E+02  0.6208E+02
   7.370  0.7818E+01  0.6217E+02
   7.380  0.6041E+01  0.6224E+02
   7.390  0.6819E+01  0.6231E+02
   7.400  0.7271E+01  0.6238E+02
   7.410  0.7471E+01  0.6246E+02
   7.420  0.9429E+01  0.6255E+02
   7.430  0.1043E+02  0.6265E+02
   7.440  0.8911E+01  0.6274E+02
   7.450  0.8696E+01  0.6283E+02
   7.460  0.8811E+01  0.6292E+02
   7.470  0.8837E+01  0.6301E+02
   7.480  0.8972E+01  0.6310E+02
   7.490  0.9149E+01  0.6319E+02
   7.500  0.7997E+01  0.6328E+02
   7.510  0.7529E+01  0.6335E+02
   7.520  0.7250E+01  0.6343E+02
   7.530  0.7094E+01  0.6350E+02
   7.540  0.6929E+01  0.6357E+02
   7.550  0.6808E+01  0.6364E+02
   7.560  0.6745E+01  0.6371E+02
   7.570  0.6724E+01  0.6377E+02
   7.580  0.6753E+01  0.6384E+02
   7.590  0.6598E+01  0.6391E+02
   7.600  0.6691E+01  0.6398E+02
   7.610  0.6783E+01  0.6404E+02
   7.620  0.6874E+01  0.6411E+02
   7.630  0.6967E+01  0.6418E+02
   7.640  0.7062E+01  0.6425E+02
   7.650  0.7266E+01  0.6432E+02
   7.660  0.7843E+01  0.6440E+02
   7.670  0.1511E+02  0.6454E+02
   7.680  0.1446E+02  0.6468E+02
   7.690  0.1362E+02  0.6481E+02
   7.700  0.1192E+02  0.6494E+02
   7.710  0.1172E+02  0.6506E+02
   7.720  0.1148E+02  0.6518E+02
   7.730  0.1134E+02  0.6529E+02
   7.740  0.1117E+02  0.6540E+02
   7.750  0.1097E+02  0.6552E+02
   7.760  0.1077E+02  0.6562E+02
   7.770  0.1073E+02  0.6573E+02
   7.780  0.1055E+02  0.6584E+02
   7.790  0.1037E+02  0.6594E+02
   7.800  0.1113E+02  0.6605E+02
   7.810  0.1104E+02  0.6617E+02
   7.820  0.1099E+02  0.6628E+02
   7.830  0.9857E+01  0.6639E+02
   7.840  0.9212E+01  0.6648E+02
   7.850  0.8446E+01  0.6658E+02
   7.860  0.7877E+01  0.6666E+02
   7.870  0.7593E+01  0.6674E+02
   7.880  0.7286E+01  0.6681E+02
   7.890  0.7068E+01  0.6689E+02
   7.900  0.6727E+01  0.6695E+02
   7.910  0.8856E+01  0.6705E+02
   7.920  0.8229E+01  0.6713E+02
   7.930  0.8122E+01  0.6721E+02
   7.940  0.8112E+01  0.6729E+02
   7.950  0.8115E+01  0.6737E+02
   7.960  0.7466E+01  0.6746E+02
   7.970  0.7210E+01  0.6753E+02
   7.980  0.7420E+01  0.6760E+02
   7.990  0.7354E+01  0.6768E+02
   8.000  0.7539E+01  0.6776E+02
   8.010  0.7498E+01  0.6783E+02
   8.020  0.7485E+01  0.6791E+02
   8.030  0.7894E+01  0.6798E+02
   8.040  0.1421E+02  0.6808E+02
   8.050  0.9703E+01  0.6820E+02
   8.060  0.1199E+02  0.6830E+02
   8.070  0.7428E+01  0.6838E+02
   8.080  0.8310E+01  0.6846E+02
   8.090  0.9453E+01  0.6855E+02
   8.100  0.1349E+02  0.6866E+02
   8.110  0.1507E+02  0.6880E+02
   8.120  0.1825E+02  0.6897E+02
   8.130  0.2200E+02  0.6917E+02
   8.140  0.2618E+02  0.6942E+02
   8.150  0.2747E+02  0.6970E+02
   8.160  0.2643E+02  0.6997E+02
   8.170  0.2406E+02  0.7021E+02
   8.180  0.2301E+02  0.7044E+02
   8.190  0.2033E+02  0.7064E+02
   8.200  0.1947E+02  0.7084E+02
   8.210  0.1742E+02  0.7103E+02
   8.220  0.1723E+02  0.7121E+02
   8.230  0.1204E+02  0.7138E+02
   8.240  0.1443E+02  0.7151E+02
   8.250  0.1194E+02  0.7165E+02
   8.260  0.1059E+02  0.7176E+02
   8.270  0.9906E+01  0.7186E+02
   8.280  0.1096E+02  0.7197E+02
   8.290  0.1259E+02  0.7209E+02
   8.300  0.1286E+02  0.7222E+02
   8.310  0.2088E+02  0.7240E+02
   8.320  0.2648E+02  0.7264E+02
   8.330  0.2770E+02  0.7293E+02
   8.340  0.2699E+02  0.7322E+02
   8.350  0.3053E+02  0.7350E+02
   8.360  0.3227E+02  0.7381E+02
   8.370  0.2867E+02  0.7411E+02
   8.380  0.2756E+02  0.7439E+02
   8.390  0.2722E+02  0.7467E+02
   8.400  0.2515E+02  0.7493E+02
   8.410  0.2699E+02  0.7521E+02
   8.420  0.2782E+02  0.7548E+02
   8.430  0.2967E+02  0.7577E+02
   8.440  0.2506E+02  0.7605E+02
   8.450  0.2304E+02  0.7629E+02
   8.460  0.2327E+02  0.7652E+02
   8.470  0.2346E+02  0.7676E+02
   8.480  0.2499E+02  0.7703E+02
   8.490  0.1959E+02  0.7724E+02
   8.500  0.2782E+02  0.7748E+02
   8.510  0.2337E+02  0.7776E+02
   8.520  0.1550E+02  0.7795E+02
   8.530  0.1132E+02  0.7808E+02
   8.540  0.8751E+01  0.7818E+02
   8.550  0.8402E+01  0.7827E+02
   8.560  0.8671E+01  0.7836E+02
   8.570  0.8685E+01  0.7844E+02
   8.580  0.8920E+01  0.7853E+02
   8.590  0.9647E+01  0.7864E+02
   8.600  0.9465E+01  0.7874E+02
   8.610  0.1137E+02  0.7886E+02
   8.620  0.1194E+02  0.7897E+02
   8.630  0.1209E+02  0.7909E+02
   8.640  0.1587E+02  0.7923E+02
   8.650  0.1670E+02  0.7940E+02
   8.660  0.1692E+02  0.7957E+02
   8.670  0.1767E+02  0.7974E+02
   8.680  0.1862E+02  0.7992E+02
   8.690  0.1895E+02  0.8011E+02
   8.700  0.1907E+02  0.8030E+02
   8.710  0.2020E+02  0.8051E+02
   8.720  0.2093E+02  0.8071E+02
   8.730  0.2191E+02  0.8093E+02
   8.740  0.2384E+02  0.8117E+02
   8.750  0.2448E+02  0.8141E+02
   8.760  0.2058E+02  0.8164E+02
   8.770  0.1857E+02  0.8184E+02
   8.780  0.1701E+02  0.8201E+02
   8.790  0.1532E+02  0.8217E+02
   8.800  0.1529E+02  0.8232E+02
   8.810  0.1485E+02  0.8248E+02
   8.820  0.1834E+02  0.8265E+02
   8.830  0.2118E+02  0.8288E+02
   8.840  0.1501E+02  0.8304E+02
   8.850  0.1332E+02  0.8318E+02
   8.860  0.1333E+02  0.8334E+02
   8.870  0.1242E+02  0.8347E+02
   8.880  0.1166E+02  0.8359E+02
   8.890  0.9565E+01  0.8370E+02
   8.900  0.8710E+01  0.8380E+02
   8.910  0.8579E+01  0.8388E+02
   8.920  0.8652E+01  0.8397E+02
   8.930  0.8872E+01  0.8406E+02
   8.940  0.9120E+01  0.8415E+02
   8.950  0.9680E+01  0.8424E+02
   8.960  0.1400E+02  0.8437E+02
   8.970  0.1411E+02  0.8452E+02
   8.980  0.1339E+02  0.8466E+02
   8.990  0.1522E+02  0.8480E+02
   9.000  0.1258E+02  0.8496E+02
   9.010  0.1242E+02  0.8508E+02
   9.020  0.1232E+02  0.8521E+02
   9.030  0.1243E+02  0.8533E+02
   9.040  0.1299E+02  0.8546E+02
   9.050  0.1340E+02  0.8559E+02
   9.060  0.1377E+02  0.8572E+02
   9.070  0.1403E+02  0.8586E+02
   9.080  0.1387E+02  0.8602E+02
   9.090  0.1417E+02  0.8616E+02
   9.100  0.1455E+02  0.8630E+02
   9.110  0.1413E+02  0.8645E+02
   9.120  0.1364E+02  0.8659E+02
   9.130  0.1357E+02  0.8673E+02
   9.140  0.1346E+02  0.8686E+02
   9.150  0.1339E+02  0.8700E+02
   9.160  0.1303E+02  0.8713E+02
   9.170  0.1291E+02  0.8726E+02
   9.180  0.1324E+02  0.8740E+02
   9.190  0.1318E+02  0.8753E+02
   9.200  0.1359E+02  0.8767E+02
   9.210  0.1495E+02  0.8782E+02
   9.220  0.1190E+02  0.8797E+02
   9.230  0.1205E+02  0.8809E+02
   9.240  0.1162E+02  0.8821E+02
   9.250  0.1120E+02  0.8832E+02
   9.260  0.9068E+01  0.8842E+02
   9.270  0.9051E+01  0.8851E+02
   9.280  0.8856E+01  0.8860E+02
   9.290  0.9111E+01  0.8869E+02
   9.300  0.9377E+01  0.8878E+02
   9.310  0.1251E+02  0.8891E+02
   9.320  0.1323E+02  0.8904E+02
   9.330  0.1289E+02  0.8917E+02
   9.340  0.1289E+02  0.8930E+02
   9.350  0.1295E+02  0.8943E+02
   9.360  0.1335E+02  0.8957E+02
   9.370  0.1288E+02  0.8970E+02
   9.380  0.1307E+02  0.8983E+02
   9.390  0.1359E+02  0.8997E+02
   9.400  0.1439E+02  0.9011E+02
   9.410  0.1651E+02  0.9026E+02
   9.420  0.1825E+02  0.9044E+02
   9.430  0.2269E+02  0.9065E+02
   9.440  0.2057E+02  0.9088E+02
   9.450  0.1855E+02  0.9108E+02
   9.460  0.1758E+02  0.9126E+02
   9.470  0.1924E+02  0.9147E+02
   9.480  0.2103E+02  0.9168E+02
   9.490  0.2353E+02  0.9190E+02
   9.500  0.2629E+02  0.9214E+02
   9.510  0.2202E+02  0.9237E+02
   9.520  0.2195E+02  0.9260E+02
   9.530  0.2197E+02  0.9282E+02
   9.540  0.2242E+02  0.9304E+02
   9.550  0.2067E+02  0.9326E+02
   9.560  0.1816E+02  0.9347E+02
   9.570  0.1551E+02  0.9365E+02
   9.580  0.1324E+02  0.9379E+02
   9.590  0.1222E+02  0.9392E+02
   9.600  0.1240E+02  0.9405E+02
   9.610  0.1153E+02  0.9419E+02
   9.620  0.1089E+02  0.9430E+02
   9.630  0.1031E+02  0.9440E+02
   9.640  0.1024E+02  0.9451E+02
   9.650  0.8640E+01  0.9461E+02
   9.660  0.9546E+01  0.9470E+02
   9.670  0.8901E+01  0.9480E+02
   9.680  0.9542E+01  0.9489E+02
   9.690  0.1491E+02  0.9503E+02
   9.700  0.2027E+02  0.9519E+02
   9.710  0.1662E+02  0.9538E+02
   9.720  0.1240E+02  0.9552E+02
   9.730  0.1345E+02  0.9567E+02
   9.740  0.1510E+02  0.9581E+02
   9.750  0.1642E+02  0.9598E+02
   9.760  0.1755E+02  0.9615E+02
   9.770  0.1769E+02  0.9635E+02
   9.780  0.1456E+02  0.9652E+02
   9.790  0.9220E+01  0.9667E+02
   9.800  0.1032E+02  0.9678E+02
   9.810  0.9839E+01  0.9690E+02
   9.820  0.1003E+02  0.9700E+02
   9.830  0.1068E+02  0.9710E+02
   9.840  0.1098E+02  0.9721E+02
   9.850  0.1111E+02  0.9732E+02
   9.860  0.1084E+02  0.9743E+02
   9.870  0.1057E+02  0.9754E+02
   9.880  0.1014E+02  0.9765E+02
   9.890  0.1019E+02  0.9775E+02
   9.900  0.1024E+02  0.9785E+02
   9.910  0.9966E+01  0.9795E+02
   9.920  0.9902E+01  0.9805E+02
   9.930  0.9832E+01  0.9815E+02
   9.940  0.9822E+01  0.9825E+02
   9.950  0.9887E+01  0.9835E+02
   9.960  0.9369E+01  0.9845E+02
   9.970  0.9309E+01  0.9854E+02
   9.980  0.9322E+01  0.9863E+02
   9.990  0.9381E+01  0.9873E+02
  10.000  0.9622E+01  0.9882E+02
  10.010  0.9766E+01  0.9892E+02
  10.020  0.1005E+02  0.9902E+02
  10.030  0.1046E+02  0.9912E+02
  10.040  0.9742E+01  0.9923E+02
  10.050  0.9051E+01  0.9932E+02
  10.060  0.8857E+01  0.9941E+02
  10.070  0.8707E+01  0.9950E+02
  10.080  0.8578E+01  0.9959E+02
  10.090  0.8465E+01  0.9967E+02
  10.100  0.8376E+01  0.9976E+02
  10.110  0.8352E+01  0.9984E+02
  10.120  0.8291E+01  0.9992E+02
  10.130  0.8278E+01  0.1000E+03
  10.140  0.8273E+01  0.1001E+03
  10.150  0.7440E+01  0.1002E+03
  10.160  0.7486E+01  0.1003E+03
  10.170  0.7533E+01  0.1004E+03
  10.180  0.7579E+01  0.1005E+03
  10.190  0.7626E+01  0.1005E+03
  10.200  0.7673E+01  0.1006E+03
  10.210  0.7723E+01  0.1007E+03
  10.220  0.7780E+01  0.1008E+03
  10.230  0.7846E+01  0.1008E+03
  10.240  0.7914E+01  0.1009E+03
  10.250  0.7984E+01  0.1010E+03
  10.260  0.8058E+01  0.1011E+03
  10.270  0.8134E+01  0.1012E+03
  10.280  0.8483E+01  0.1012E+03
  10.290  0.8623E+01  0.1013E+03
  10.300  0.8783E+01  0.1014E+03
  10.310  0.8968E+01  0.1015E+03
  10.320  0.9362E+01  0.1016E+03
  10.330  0.9855E+01  0.1017E+03
  10.340  0.9867E+01  0.1018E+03
  10.350  0.1013E+02  0.1019E+03
  10.360  0.1070E+02  0.1020E+03
  10.370  0.1117E+02  0.1021E+03
  10.380  0.1191E+02  0.1022E+03
  10.390  0.1247E+02  0.1023E+03
  10.400  0.1283E+02  0.1025E+03
  10.410  0.1303E+02  0.1026E+03
  10.420  0.1322E+02  0.1027E+03
  10.430  0.2626E+02  0.1029E+03
  10.440  0.1670E+02  0.1031E+03
  10.450  0.1608E+02  0.1033E+03
  10.460  0.1640E+02  0.1034E+03
  10.470  0.1676E+02  0.1036E+03
  10.480  0.1710E+02  0.1038E+03
  10.490  0.1937E+02  0.1040E+03
  10.500  0.2079E+02  0.1042E+03
  10.510  0.2146E+02  0.1044E+03
  10.520  0.2192E+02  0.1046E+03
  10.530  0.2178E+02  0.1049E+03
  10.540  0.2028E+02  0.1051E+03
  10.550  0.1970E+02  0.1053E+03
  10.560  0.2170E+02  0.1055E+03
  10.570  0.1865E+02  0.1057E+03
  10.580  0.2444E+02  0.1059E+03
  10.590  0.1817E+02  0.1061E+03
  10.600  0.1793E+02  0.1063E+03
  10.610  0.1854E+02  0.1065E+03
  10.620  0.1828E+02  0.1067E+03
  10.630  0.1752E+02  0.1069E+03
  10.640  0.1744E+02  0.1070E+03
  10.650  0.2009E+02  0.1072E+03
  10.660  0.2102E+02  0.1074E+03
  10.670  0.2235E+02  0.1077E+03
  10.680  0.2435E+02  0.1079E+03
  10.690  0.2467E+02  0.1082E+03
  10.700  0.2432E+02  0.1084E+03
  10.710  0.1812E+02  0.1086E+03
  10.720  0.1660E+02  0.1088E+03
  10.730  0.1561E+02  0.1090E+03
  10.740  0.1434E+02  0.1091E+03
  10.750  0.1368E+02  0.1093E+03
  10.760  0.1405E+02  0.1094E+03
  10.770  0.1321E+02  0.1096E+03
  10.780  0.1159E+02  0.1097E+03
  10.790  0.1285E+02  0.1098E+03
  10.800  0.9675E+01  0.1099E+03
  10.810  0.6662E+01  0.1100E+03
  10.820  0.6321E+01  0.1101E+03
  10.830  0.5359E+01  0.1102E+03
  10.840  0.5347E+01  0.1102E+03
  10.850  0.5361E+01  0.1103E+03
  10.860  0.5389E+01  0.1103E+03
  10.870  0.5432E+01  0.1104E+03
  10.880  0.5593E+01  0.1104E+03
  10.890  0.5675E+01  0.1105E+03
  10.900  0.5723E+01  0.1105E+03
  10.910  0.5718E+01  0.1106E+03
  10.920  0.5686E+01  0.1107E+03
  10.930  0.5634E+01  0.1107E+03
  10.940  0.5567E+01  0.1108E+03
  10.950  0.5504E+01  0.1108E+03
  10.960  0.5462E+01  0.1109E+03
  10.970  0.5460E+01  0.1109E+03
  10.980  0.6609E+01  0.1110E+03
  10.990  0.5960E+01  0.1111E+03
  11.000  0.6125E+01  0.1111E+03
  11.010  0.6319E+01  0.1112E+03
  11.020  0.6351E+01  0.1112E+03
  11.030  0.6370E+01  0.1113E+03
  11.040  0.6375E+01  0.1114E+03
  11.050  0.7588E+01  0.1114E+03
  11.060  0.7315E+01  0.1115E+03
  11.070  0.6860E+01  0.1116E+03
  11.080  0.6195E+01  0.1117E+03
  11.090  0.6060E+01  0.1117E+03
  11.100  0.6075E+01  0.1118E+03
  11.110  0.5973E+01  0.1118E+03
  11.120  0.5834E+01  0.1119E+03
  11.130  0.5457E+01  0.1120E+03
  11.140  0.5361E+01  0.1120E+03
  11.150  0.5101E+01  0.1121E+03
  11.160  0.4835E+01  0.1121E+03
  11.170  0.4559E+01  0.1122E+03
  11.180  0.4294E+01  0.1122E+03
  11.190  0.4039E+01  0.1123E+03
  11.200  0.3980E+01  0.1123E+03
  11.210  0.3960E+01  0.1123E+03
  11.220  0.3822E+01  0.1124E+03
  11.230  0.4611E+01  0.1124E+03
  11.240  0.3554E+01  0.1124E+03
  11.250  0.2641E+01  0.1125E+03
  11.260  0.2239E+01  0.1125E+03
  11.270  0.1898E+01  0.1125E+03
  11.280  0.1187E+01  0.1125E+03
  11.290  0.1206E+01  0.1126E+03
  11.300  0.1224E+01  0.1126E+03
  11.310  0.1235E+01  0.1126E+03
  11.320  0.1246E+01  0.1126E+03
  11.330  0.1257E+01  0.1126E+03
  11.340  0.1267E+01  0.1126E+03
  11.350  0.1278E+01  0.1126E+03
  11.360  0.1289E+01  0.1126E+03
  11.370  0.1300E+01  0.1127E+03
  11.380  0.1310E+01  0.1127E+03
  11.390  0.1321E+01  0.1127E+03
  11.400  0.1332E+01  0.1127E+03
  11.410  0.1343E+01  0.1127E+03
  11.420  0.1353E+01  0.1127E+03
  11.430  0.1364E+01  0.1127E+03
  11.440  0.1375E+01  0.1128E+03
  11.450  0.1386E+01  0.1128E+03
  11.460  0.1396E+01  0.1128E+03
  11.470  0.1407E+01  0.1128E+03
  11.480  0.1418E+01  0.1128E+03
  11.490  0.1429E+01  0.1128E+03
  11.500  0.1440E+01  0.1128E+03
  11.510  0.1450E+01  0.1129E+03
  11.520  0.1461E+01  0.1129E+03
  11.530  0.1472E+01  0.1129E+03
  11.540  0.1526E+01  0.1129E+03
  11.550  0.1567E+01  0.1129E+03
  11.560  0.1597E+01  0.1129E+03
  11.570  0.1628E+01  0.1129E+03
  11.580  0.1658E+01  0.1130E+03
  11.590  0.1688E+01  0.1130E+03
  11.600  0.1717E+01  0.1130E+03
  11.610  0.1746E+01  0.1130E+03
  11.620  0.1775E+01  0.1130E+03
  11.630  0.1822E+01  0.1130E+03
  11.640  0.1835E+01  0.1131E+03
  11.650  0.1842E+01  0.1131E+03
  11.660  0.1849E+01  0.1131E+03
  11.670  0.1930E+01  0.1131E+03
  11.680  0.1971E+01  0.1131E+03
  11.690  0.2015E+01  0.1132E+03
  11.700  0.2063E+01  0.1132E+03
  11.710  0.2125E+01  0.1132E+03
  11.720  0.2190E+01  0.1132E+03
  11.730  0.2277E+01  0.1132E+03
  11.740  0.2393E+01  0.1133E+03
  11.750  0.2495E+01  0.1133E+03
  11.760  0.2530E+01  0.1133E+03
  11.770  0.2565E+01  0.1133E+03
  11.780  0.2601E+01  0.1134E+03
  11.790  0.2636E+01  0.1134E+03
  11.800  0.2672E+01  0.1134E+03
  11.810  0.6517E+01  0.1135E+03
  11.820  0.4396E+01  0.1135E+03
  11.830  0.3704E+01  0.1136E+03
  11.840  0.2477E+01  0.1136E+03
  11.850  0.2496E+01  0.1136E+03
  11.860  0.3263E+01  0.1137E+03
  11.870  0.3210E+01  0.1137E+03
  11.880  0.3288E+01  0.1137E+03
  11.890  0.3925E+01  0.1138E+03
  11.900  0.2008E+01  0.1138E+03
  11.910  0.1998E+01  0.1138E+03
  11.920  0.1987E+01  0.1138E+03
  11.930  0.1977E+01  0.1139E+03
  11.940  0.1966E+01  0.1139E+03
  11.950  0.1956E+01  0.1139E+03
  11.960  0.1945E+01  0.1139E+03
  11.970  0.1935E+01  0.1139E+03
  11.980  0.1925E+01  0.1140E+03
  11.990  0.1914E+01  0.1140E+03
  12.000  0.1904E+01  0.1140E+03
  12.010  0.1893E+01  0.1140E+03
  12.020  0.1883E+01  0.1140E+03
  12.030  0.1872E+01  0.1140E+03
  12.040  0.1862E+01  0.1141E+03
  12.050  0.1851E+01  0.1141E+03
  12.060  0.1841E+01  0.1141E+03
  12.070  0.1830E+01  0.1141E+03
  12.080  0.1820E+01  0.1141E+03
  12.090  0.1809E+01  0.1142E+03
  12.100  0.1799E+01  0.1142E+03
  12.110  0.1788E+01  0.1142E+03
  12.120  0.1778E+01  0.1142E+03
  12.130  0.1767E+01  0.1142E+03
  12.140  0.1757E+01  0.1142E+03
  12.150  0.1746E+01  0.1143E+03
  12.160  0.1736E+01  0.1143E+03
  12.170  0.1725E+01  0.1143E+03
  12.180  0.1715E+01  0.1143E+03
  12.190  0.1681E+01  0.1143E+03
  12.200  0.1648E+01  0.1143E+03
  12.210  0.1624E+01  0.1144E+03
  12.220  0.1611E+01  0.1144E+03
  12.230  0.1597E+01  0.1144E+03
  12.240  0.1584E+01  0.1144E+03
  12.250  0.1570E+01  0.1144E+03
  12.260  0.1556E+01  0.1144E+03
  12.270  0.1543E+01  0.1145E+03
  12.280  0.1529E+01  0.1145E+03
  12.290  0.1516E+01  0.1145E+03
  12.300  0.1502E+01  0.1145E+03
  12.310  0.1489E+01  0.1145E+03
  12.320  0.1475E+01  0.1145E+03
  12.330  0.1461E+01  0.1145E+03
  12.340  0.1448E+01  0.1146E+03
  12.350  0.1434E+01  0.1146E+03
  12.360  0.1421E+01  0.1146E+03
  12.370  0.1407E+01  0.1146E+03
  12.380  0.1394E+01  0.1146E+03
  12.390  0.1380E+01  0.1146E+03
  12.400  0.1366E+01  0.1146E+03
  12.410  0.1353E+01  0.1147E+03
  12.420  0.1339E+01  0.1147E+03
  12.430  0.1326E+01  0.1147E+03
  12.440  0.1312E+01  0.1147E+03
  12.450  0.1230E+01  0.1147E+03
  12.460  0.1161E+01  0.1147E+03
  12.470  0.1155E+01  0.1147E+03
  12.480  0.1150E+01  0.1148E+03
  12.490  0.1144E+01  0.1148E+03
  12.500  0.1138E+01  0.1148E+03
  12.510  0.1132E+01  0.1148E+03
  12.520  0.1127E+01  0.1148E+03
  12.530  0.1121E+01  0.1148E+03
  12.540  0.1115E+01  0.1148E+03
  12.550  0.1109E+01  0.1148E+03
  12.560  0.1104E+01  0.1148E+03
  12.570  0.1098E+01  0.1149E+03
  12.580  0.1092E+01  0.1149E+03
  12.590  0.1086E+01  0.1149E+03
  12.600  0.1081E+01  0.1149E+03
  12.610  0.1075E+01  0.1149E+03
  12.620  0.1069E+01  0.1149E+03
  12.630  0.1063E+01  0.1149E+03
  12.640  0.1057E+01  0.1149E+03
  12.650  0.1052E+01  0.1149E+03
  12.660  0.1046E+01  0.1149E+03
  12.670  0.1040E+01  0.1150E+03
  12.680  0.1034E+01  0.1150E+03
  12.690  0.1029E+01  0.1150E+03
  12.700  0.1023E+01  0.1150E+03
  12.710  0.1017E+01  0.1150E+03
  12.720  0.1011E+01  0.1150E+03
  12.730  0.1006E+01  0.1150E+03
  12.740  0.9999E+00  0.1150E+03
  12.750  0.9941E+00  0.1150E+03
  12.760  0.9883E+00  0.1150E+03
  12.770  0.1269E+01  0.1151E+03
  12.780  0.1282E+01  0.1151E+03
  12.790  0.1295E+01  0.1151E+03
  12.800  0.1184E+01  0.1151E+03
  12.810  0.1189E+01  0.1151E+03
  12.820  0.1194E+01  0.1151E+03
  12.830  0.1200E+01  0.1151E+03
  12.840  0.1206E+01  0.1152E+03
  12.850  0.1211E+01  0.1152E+03
  12.860  0.1179E+01  0.1152E+03
  12.870  0.1183E+01  0.1152E+03
  12.880  0.1186E+01  0.1152E+03
  12.890  0.1190E+01  0.1152E+03
  12.900  0.1194E+01  0.1152E+03
  12.910  0.1199E+01  0.1152E+03
  12.920  0.1205E+01  0.1152E+03
  12.930  0.1213E+01  0.1153E+03
  12.940  0.1222E+01  0.1153E+03
  12.950  0.1171E+01  0.1153E+03
  12.960  0.1174E+01  0.1153E+03
  12.970  0.1178E+01  0.1153E+03
  12.980  0.1181E+01  0.1153E+03
  12.990  0.1185E+01  0.1153E+03
  13.000  0.1188E+01  0.1153E+03
  13.010  0.1191E+01  0.1154E+03
  13.020  0.1195E+01  0.1154E+03
  13.030  0.1198E+01  0.1154E+03
  13.040  0.1202E+01  0.1154E+03
  13.050  0.1205E+01  0.1154E+03
  13.060  0.1310E+01  0.1154E+03
  13.070  0.1320E+01  0.1154E+03
  13.080  0.1330E+01  0.1154E+03
  13.090  0.1340E+01  0.1155E+03
  13.100  0.1351E+01  0.1155E+03
  13.110  0.1361E+01  0.1155E+03
  13.120  0.1372E+01  0.1155E+03
  13.130  0.1383E+01  0.1155E+03
  13.140  0.1394E+01  0.1155E+03
  13.150  0.1405E+01  0.1155E+03
  13.160  0.1416E+01  0.1156E+03
  13.170  0.1427E+01  0.1156E+03
  13.180  0.1443E+01  0.1156E+03
  13.190  0.1456E+01  0.1156E+03
  13.200  0.1468E+01  0.1156E+03
  13.210  0.1482E+01  0.1156E+03
  13.220  0.1495E+01  0.1156E+03
  13.230  0.1508E+01  0.1157E+03
  13.240  0.1522E+01  0.1157E+03
  13.250  0.1536E+01  0.1157E+03
  13.260  0.1550E+01  0.1157E+03
  13.270  0.1564E+01  0.1157E+03
  13.280  0.1578E+01  0.1157E+03
  13.290  0.1626E+01  0.1158E+03
  13.300  0.1645E+01  0.1158E+03
  13.310  0.1665E+01  0.1158E+03
  13.320  0.1707E+01  0.1158E+03
  13.330  0.1746E+01  0.1158E+03
  13.340  0.1756E+01  0.1158E+03
  13.350  0.1766E+01  0.1159E+03
  13.360  0.1778E+01  0.1159E+03
  13.370  0.1733E+01  0.1159E+03
  13.380  0.1735E+01  0.1159E+03
  13.390  0.1738E+01  0.1159E+03
  13.400  0.1740E+01  0.1159E+03
  13.410  0.1742E+01  0.1160E+03
  13.420  0.1745E+01  0.1160E+03
  13.430  0.1747E+01  0.1160E+03
  13.440  0.1749E+01  0.1160E+03
  13.450  0.1751E+01  0.1160E+03
  13.460  0.1750E+01  0.1161E+03
  13.470  0.1753E+01  0.1161E+03
  13.480  0.1756E+01  0.1161E+03
  13.490  0.1759E+01  0.1161E+03
  13.500  0.1762E+01  0.1161E+03
  13.510  0.1765E+01  0.1161E+03
  13.520  0.1768E+01  0.1162E+03
  13.530  0.1767E+01  0.1162E+03
  13.540  0.1768E+01  0.1162E+03
  13.550  0.1769E+01  0.1162E+03
  13.560  0.1771E+01  0.1162E+03
  13.570  0.1772E+01  0.1162E+03
  13.580  0.1773E+01  0.1163E+03
  13.590  0.1773E+01  0.1163E+03
  13.600  0.1774E+01  0.1163E+03
  13.610  0.1774E+01  0.1163E+03
  13.620  0.1774E+01  0.1163E+03
  13.630  0.1773E+01  0.1164E+03
  13.640  0.1772E+01  0.1164E+03
  13.650  0.1772E+01  0.1164E+03
  13.660  0.1771E+01  0.1164E+03
  13.670  0.1768E+01  0.1164E+03
  13.680  0.1764E+01  0.1164E+03
  13.690  0.1759E+01  0.1165E+03
  13.700  0.1753E+01  0.1165E+03
  13.710  0.1741E+01  0.1165E+03
  13.720  0.1739E+01  0.1165E+03
  13.730  0.1737E+01  0.1165E+03
  13.740  0.1735E+01  0.1165E+03
  13.750  0.1733E+01  0.1166E+03
  13.760  0.1731E+01  0.1166E+03
  13.770  0.1729E+01  0.1166E+03
  13.780  0.1728E+01  0.1166E+03
  13.790  0.1727E+01  0.1166E+03
  13.800  0.1727E+01  0.1166E+03
  13.810  0.1728E+01  0.1167E+03
  13.820  0.1728E+01  0.1167E+03
  13.830  0.1729E+01  0.1167E+03
  13.840  0.1731E+01  0.1167E+03
  13.850  0.1732E+01  0.1167E+03
  13.860  0.1735E+01  0.1168E+03
  13.870  0.1737E+01  0.1168E+03
  13.880  0.1739E+01  0.1168E+03
  13.890  0.1742E+01  0.1168E+03
  13.900  0.1531E+01  0.1169E+03
  13.910  0.1325E+01  0.1169E+03
  13.920  0.1337E+01  0.1169E+03
  13.930  0.1350E+01  0.1169E+03
  13.940  0.1363E+01  0.1169E+03
  13.950  0.1377E+01  0.1170E+03
  13.960  0.1391E+01  0.1170E+03
  13.970  0.1406E+01  0.1170E+03
  13.980  0.1422E+01  0.1170E+03
  13.990  0.1439E+01  0.1170E+03
  14.000  0.1456E+01  0.1170E+03
  14.010  0.1473E+01  0.1170E+03
  14.020  0.1491E+01  0.1171E+03
  14.030  0.1508E+01  0.1171E+03
  14.040  0.1525E+01  0.1171E+03
  14.050  0.1542E+01  0.1171E+03
  14.060  0.1559E+01  0.1171E+03
  14.070  0.1577E+01  0.1171E+03
  14.080  0.1594E+01  0.1171E+03
  14.090  0.1783E+01  0.1172E+03
  14.100  0.1822E+01  0.1172E+03
  14.110  0.1880E+01  0.1172E+03
  14.120  0.1958E+01  0.1172E+03
  14.130  0.2027E+01  0.1172E+03
  14.140  0.2095E+01  0.1173E+03
  14.150  0.2177E+01  0.1173E+03
  14.160  0.2232E+01  0.1173E+03
  14.170  0.2290E+01  0.1173E+03
  14.180  0.2372E+01  0.1174E+03
  14.190  0.2472E+01  0.1174E+03
  14.200  0.2922E+01  0.1174E+03
  14.210  0.3045E+01  0.1174E+03
  14.220  0.3171E+01  0.1175E+03
  14.230  0.3134E+01  0.1175E+03
  14.240  0.3244E+01  0.1175E+03
  14.250  0.3357E+01  0.1176E+03
  14.260  0.3473E+01  0.1176E+03
  14.270  0.3668E+01  0.1176E+03
  14.280  0.3836E+01  0.1177E+03
  14.290  0.3975E+01  0.1177E+03
  14.300  0.4162E+01  0.1178E+03
  14.310  0.4359E+01  0.1178E+03
  14.320  0.4564E+01  0.1178E+03
  14.330  0.4824E+01  0.1179E+03
  14.340  0.5173E+01  0.1179E+03
  14.350  0.5496E+01  0.1180E+03
  14.360  0.5831E+01  0.1180E+03
  14.370  0.6202E+01  0.1181E+03
  14.380  0.6440E+01  0.1182E+03
  14.390  0.6657E+01  0.1182E+03
  14.400  0.6873E+01  0.1183E+03
  14.410  0.7998E+01  0.1184E+03
  14.420  0.9004E+01  0.1185E+03
  14.430  0.9424E+01  0.1186E+03
  14.440  0.9883E+01  0.1187E+03
  14.450  0.1046E+02  0.1188E+03
  14.460  0.1142E+02  0.1189E+03
  14.470  0.1189E+02  0.1190E+03
  14.480  0.1212E+02  0.1191E+03
  14.490  0.1182E+02  0.1192E+03
  14.500  0.1257E+02  0.1194E+03
  14.510  0.1315E+02  0.1195E+03
  14.520  0.1393E+02  0.1196E+03
  14.530  0.1450E+02  0.1198E+03
  14.540  0.1505E+02  0.1199E+03
  14.550  0.2002E+02  0.1201E+03
  14.560  0.2046E+02  0.1203E+03
  14.570  0.2101E+02  0.1205E+03
  14.580  0.2295E+02  0.1207E+03
  14.590  0.2790E+02  0.1210E+03
  14.600  0.2912E+02  0.1213E+03
  14.610  0.3115E+02  0.1216E+03
  14.620  0.3317E+02  0.1219E+03
  14.630  0.3004E+02  0.1222E+03
  14.640  0.2882E+02  0.1225E+03
  14.650  0.2631E+02  0.1228E+03
  14.660  0.2493E+02  0.1230E+03
  14.670  0.2441E+02  0.1233E+03
  14.680  0.2461E+02  0.1235E+03
  14.690  0.3649E+02  0.1238E+03
  14.700  0.4855E+02  0.1243E+03
  14.710  0.3896E+02  0.1247E+03
  14.720  0.5131E+02  0.1252E+03
  14.730  0.5125E+02  0.1257E+03
  14.740  0.4452E+02  0.1262E+03
  14.750  0.3802E+02  0.1266E+03
  14.760  0.5671E+02  0.1270E+03
  14.770  0.2244E+02  0.1273E+03
  14.780  0.1842E+02  0.1276E+03
  14.790  0.1587E+02  0.1277E+03
  14.800  0.1410E+02  0.1279E+03
  14.810  0.1891E+02  0.1280E+03
  14.820  0.3104E+02  0.1283E+03
  14.830  0.2936E+02  0.1286E+03
  14.840  0.2596E+02  0.1289E+03
  14.850  0.3554E+02  0.1292E+03
  14.860  0.4775E+02  0.1296E+03
  14.870  0.4416E+02  0.1300E+03
  14.880  0.5522E+02  0.1305E+03
  14.890  0.6071E+02  0.1311E+03
  14.900  0.6136E+02  0.1317E+03
  14.910  0.6658E+02  0.1324E+03
  14.920  0.7158E+02  0.1331E+03
  14.930  0.6988E+02  0.1338E+03
  14.940  0.1101E+03  0.1346E+03
  14.950  0.8874E+02  0.1356E+03
  14.960  0.7819E+02  0.1364E+03
  14.970  0.8261E+02  0.1372E+03
  14.980  0.7579E+02  0.1380E+03
  14.990  0.6577E+02  0.1389E+03
  15.000  0.6697E+02  0.1395E+03
  15.010  0.7008E+02  0.1402E+03
  15.020  0.7525E+02  0.1410E+03
  15.030  0.7187E+02  0.1418E+03
  15.040  0.7605E+02  0.1425E+03
  15.050  0.1085E+03  0.1434E+03
  15.060  0.1051E+03  0.1444E+03
  15.070  0.1134E+03  0.1455E+03
  15.080  0.9476E+02  0.1465E+03
  15.090  0.6425E+02  0.1472E+03
  15.100  0.5818E+02  0.1479E+03
  15.110  0.1125E+03  0.1488E+03
  15.120  0.2465E+03  0.1507E+03
  15.130  0.1160E+03  0.1521E+03
  15.140  0.1307E+03  0.1534E+03
  15.150  0.1208E+03  0.1547E+03
  15.160  0.1218E+03  0.1562E+03
  15.170  0.1210E+03  0.1572E+03
  15.180  0.8109E+02  0.1581E+03
  15.190  0.7453E+02  0.1590E+03
  15.200  0.6027E+02  0.1596E+03
  15.210  0.8070E+02  0.1603E+03
  15.220  0.1297E+03  0.1614E+03
  15.230  0.8979E+02  0.1626E+03
  15.240  0.5093E+02  0.1632E+03
  15.250  0.3708E+02  0.1636E+03
  15.260  0.4813E+02  0.1641E+03
  15.270  0.4143E+02  0.1646E+03
  15.280  0.5500E+02  0.1651E+03
  15.290  0.5012E+02  0.1656E+03
  15.300  0.4177E+02  0.1661E+03
  15.310  0.5372E+02  0.1667E+03
  15.320  0.5836E+02  0.1672E+03
  15.330  0.5764E+02  0.1678E+03
  15.340  0.5435E+02  0.1684E+03
  15.350  0.5324E+02  0.1689E+03
  15.360  0.7316E+02  0.1696E+03
  15.370  0.1045E+03  0.1704E+03
  15.380  0.4506E+02  0.1716E+03
  15.390  0.1992E+02  0.1719E+03
  15.400  0.1390E+02  0.1721E+03
  15.410  0.9535E+01  0.1722E+03
  15.420  0.8480E+01  0.1723E+03
  15.430  0.1092E+02  0.1724E+03
  15.440  0.4640E+01  0.1724E+03
  15.450  0.2699E+01  0.1725E+03
  15.460  0.3478E+01  0.1725E+03
  15.470  0.3302E+01  0.1725E+03
  15.480  0.3360E+01  0.1726E+03
  15.490  0.3284E+01  0.1726E+03
  15.500  0.3333E+01  0.1726E+03
  15.510  0.3109E+01  0.1727E+03
  15.520  0.3129E+01  0.1727E+03
  15.530  0.3149E+01  0.1727E+03
  15.540  0.3501E+01  0.1728E+03
  15.550  0.3555E+01  0.1728E+03
  15.560  0.3611E+01  0.1729E+03
  15.570  0.3756E+01  0.1729E+03
  15.580  0.3778E+01  0.1729E+03
  15.590  0.3951E+01  0.1730E+03
  15.600  0.3324E+01  0.1730E+03
  15.610  0.3300E+01  0.1730E+03
  15.620  0.3295E+01  0.1731E+03
  15.630  0.3306E+01  0.1731E+03
  15.640  0.3307E+01  0.1731E+03
  15.650  0.3329E+01  0.1732E+03
  15.660  0.3378E+01  0.1732E+03
  15.670  0.3410E+01  0.1732E+03
  15.680  0.3430E+01  0.1733E+03
  15.690  0.3465E+01  0.1733E+03
  15.700  0.3503E+01  0.1733E+03
  15.710  0.4304E+01  0.1734E+03
  15.720  0.4463E+01  0.1734E+03
  15.730  0.4474E+01  0.1735E+03
  15.740  0.4621E+01  0.1735E+03
  15.750  0.4457E+01  0.1736E+03
  15.760  0.4561E+01  0.1736E+03
  15.770  0.4668E+01  0.1737E+03
  15.780  0.5215E+01  0.1737E+03
  15.790  0.5410E+01  0.1738E+03
  15.800  0.5612E+01  0.1738E+03
  15.810  0.5841E+01  0.1739E+03
  15.820  0.6080E+01  0.1739E+03
  15.830  0.6391E+01  0.1740E+03
  15.840  0.6713E+01  0.1741E+03
  15.850  0.6936E+01  0.1741E+03
  15.860  0.7388E+01  0.1742E+03
  15.870  0.7814E+01  0.1743E+03
  15.880  0.8339E+01  0.1744E+03
  15.890  0.8956E+01  0.1745E+03
  15.900  0.9649E+01  0.1746E+03
  15.910  0.9863E+01  0.1747E+03
  15.920  0.1048E+02  0.1748E+03
  15.930  0.1067E+02  0.1749E+03
  15.940  0.1028E+02  0.1750E+03
  15.950  0.1297E+02  0.1751E+03
  15.960  0.1292E+02  0.1752E+03
  15.970  0.1175E+02  0.1753E+03
  15.980  0.1193E+02  0.1755E+03
  15.990  0.1126E+02  0.1756E+03
  16.000  0.1119E+02  0.1757E+03
  16.010  0.1195E+02  0.1758E+03
  16.020  0.1192E+02  0.1759E+03
  16.030  0.1204E+02  0.1761E+03
  16.040  0.1195E+02  0.1762E+03
  16.050  0.1260E+02  0.1763E+03
  16.060  0.1063E+02  0.1764E+03
  16.070  0.1045E+02  0.1765E+03
  16.080  0.1005E+02  0.1766E+03
  16.090  0.9573E+01  0.1767E+03
  16.100  0.8811E+01  0.1768E+03
  16.110  0.8325E+01  0.1769E+03
  16.120  0.6792E+01  0.1770E+03
  16.130  0.6267E+01  0.1770E+03
  16.140  0.6112E+01  0.1771E+03
  16.150  0.5732E+01  0.1772E+03
  16.160  0.5543E+01  0.1772E+03
  16.170  0.5384E+01  0.1773E+03
  16.180  0.5275E+01  0.1773E+03
  16.190  0.5195E+01  0.1774E+03
  16.200  0.5976E+01  0.1774E+03
  16.210  0.6372E+01  0.1775E+03
  16.220  0.8199E+01  0.1776E+03
  16.230  0.9263E+01  0.1777E+03
  16.240  0.8457E+01  0.1778E+03
  16.250  0.8306E+01  0.1778E+03
  16.260  0.8670E+01  0.1779E+03
  16.270  0.8540E+01  0.1780E+03
  16.280  0.8422E+01  0.1781E+03
  16.290  0.8445E+01  0.1782E+03
  16.300  0.8358E+01  0.1783E+03
  16.310  0.8336E+01  0.1783E+03
  16.320  0.8315E+01  0.1784E+03
  16.330  0.8287E+01  0.1785E+03
  16.340  0.8298E+01  0.1786E+03
  16.350  0.8354E+01  0.1787E+03
  16.360  0.8407E+01  0.1788E+03
  16.370  0.8233E+01  0.1788E+03
  16.380  0.9738E+01  0.1790E+03
  16.390  0.1213E+02  0.1791E+03
  16.400  0.1319E+02  0.1792E+03
  16.410  0.1327E+02  0.1793E+03
  16.420  0.9088E+01  0.1795E+03
  16.430  0.7918E+01  0.1796E+03
  16.440  0.5958E+01  0.1796E+03
  16.450  0.5163E+01  0.1797E+03
  16.460  0.4433E+01  0.1797E+03
  16.470  0.3828E+01  0.1798E+03
  16.480  0.3411E+01  0.1798E+03
  16.490  0.3006E+01  0.1798E+03
  16.500  0.2472E+01  0.1799E+03
  16.510  0.2205E+01  0.1799E+03
  16.520  0.1808E+01  0.1799E+03
  16.530  0.1356E+01  0.1799E+03
  16.540  0.1220E+01  0.1799E+03
  16.550  0.1084E+01  0.1800E+03
  16.560  0.9474E+00  0.1800E+03
  16.570  0.8111E+00  0.1800E+03
  16.580  0.6746E+00  0.1800E+03
  16.590  0.5382E+00  0.1800E+03
  16.600  0.4016E+00  0.1800E+03
  16.610  0.2848E+00  0.1800E+03
  16.620  0.2112E+00  0.1800E+03
  16.630  0.1470E+00  0.1800E+03
  16.640  0.9091E-01  0.1800E+03
  16.650  0.4335E-01  0.1800E+03
  16.660  0.4312E-02  0.1800E+03
  16.670  0.0000E+00  0.1800E+03
  16.680  0.0000E+00  0.1800E+03
  16.690  0.0000E+00  0.1800E+03
  16.700  0.0000E+00  0.1800E+03
  16.710  0.0000E+00  0.1800E+03
  16.720  0.0000E+00  0.1800E+03
  16.730  0.0000E+00  0.1800E+03
  16.740  0.0000E+00  0.1800E+03
  16.750  0.0000E+00  0.1800E+03
  16.760  0.0000E+00  0.1800E+03
  16.770  0.0000E+00  0.1800E+03
  16.780  0.0000E+00  0.1800E+03
  16.790  0.0000E+00  0.1800E+03
  16.800  0.0000E+00  0.1800E+03
  16.810  0.0000E+00  0.1800E+03
  16.820  0.0000E+00  0.1800E+03
  16.830  0.0000E+00  0.1800E+03
  16.840  0.0000E+00  0.1800E+03
  16.850  0.0000E+00  0.1800E+03
  16.860  0.0000E+00  0.1800E+03
  16.870  0.0000E+00  0.1800E+03
  16.880  0.0000E+00  0.1800E+03
  16.890  0.0000E+00  0.1800E+03
  16.900  0.0000E+00  0.1800E+03
  16.910  0.0000E+00  0.1800E+03
  16.920  0.0000E+00  0.1800E+03
  16.930  0.0000E+00  0.1800E+03
  16.940  0.0000E+00  0.1800E+03
  16.950  0.0000E+00  0.1800E+03
  16.960  0.0000E+00  0.1800E+03
  16.970  0.0000E+00  0.1800E+03
  16.980  0.0000E+00  0.1800E+03
  16.990  0.0000E+00  0.1800E+03
  17.000  0.0000E+00  0.1800E+03
  17.010  0.0000E+00  0.1800E+03
  17.020  0.0000E+00  0.1800E+03
  17.030  0.0000E+00  0.1800E+03
  17.040  0.0000E+00  0.1800E+03
  17.050  0.0000E+00  0.1800E+03
  17.060  0.0000E+00  0.1800E+03
  17.070  0.0000E+00  0.1800E+03
  17.080  0.0000E+00  0.1800E+03
  17.090  0.0000E+00  0.1800E+03
  17.100  0.0000E+00  0.1800E+03
  17.110  0.0000E+00  0.1800E+03
  17.120  0.0000E+00  0.1800E+03
  17.130  0.0000E+00  0.1800E+03
  17.140  0.0000E+00  0.1800E+03
  17.150  0.0000E+00  0.1800E+03
  17.160  0.0000E+00  0.1800E+03
  17.170  0.0000E+00  0.1800E+03
  17.180  0.0000E+00  0.1800E+03
  17.190  0.0000E+00  0.1800E+03
  17.200  0.0000E+00  0.1800E+03
  17.210  0.0000E+00  0.1800E+03
  17.220  0.0000E+00  0.1800E+03
  17.230  0.0000E+00  0.1800E+03
  17.240  0.0000E+00  0.1800E+03
  17.250  0.0000E+00  0.1800E+03
  17.260  0.0000E+00  0.1800E+03
  17.270  0.0000E+00  0.1800E+03
  17.280  0.0000E+00  0.1800E+03
  17.290  0.0000E+00  0.1800E+03
  17.300  0.0000E+00  0.1800E+03
  17.310  0.0000E+00  0.1800E+03
  17.320  0.0000E+00  0.1800E+03
  17.330  0.0000E+00  0.1800E+03
  17.340  0.0000E+00  0.1800E+03
  17.350  0.0000E+00  0.1800E+03
  17.360  0.0000E+00  0.1800E+03
  17.370  0.0000E+00  0.1800E+03
  17.380  0.0000E+00  0.1800E+03
  17.390  0.0000E+00  0.1800E+03
  17.400  0.0000E+00  0.1800E+03
  17.410  0.0000E+00  0.1800E+03
  17.420  0.0000E+00  0.1800E+03
  17.430  0.0000E+00  0.1800E+03
  17.440  0.0000E+00  0.1800E+03
  17.450  0.0000E+00  0.1800E+03
  17.460  0.0000E+00  0.1800E+03
  17.470  0.0000E+00  0.1800E+03
  17.480  0.0000E+00  0.1800E+03
  17.490  0.0000E+00  0.1800E+03
  17.500  0.0000E+00  0.1800E+03
  17.510  0.0000E+00  0.1800E+03
  17.520  0.0000E+00  0.1800E+03
  17.530  0.0000E+00  0.1800E+03
  17.540  0.0000E+00  0.1800E+03
  17.550  0.0000E+00  0.1800E+03
  17.560  0.0000E+00  0.1800E+03
  17.570  0.0000E+00  0.1800E+03
  17.580  0.0000E+00  0.1800E+03
  17.590  0.0000E+00  0.1800E+03
  17.600  0.0000E+00  0.1800E+03
  17.610  0.0000E+00  0.1800E+03
  17.620  0.0000E+00  0.1800E+03
  17.630  0.0000E+00  0.1800E+03
  17.640  0.0000E+00  0.1800E+03
  17.650  0.0000E+00  0.1800E+03
  17.660  0.0000E+00  0.1800E+03
  17.670  0.0000E+00  0.1800E+03
  17.680  0.0000E+00  0.1800E+03
  17.690  0.0000E+00  0.1800E+03
  17.700  0.0000E+00  0.1800E+03
  17.710  0.0000E+00  0.1800E+03
  17.720  0.0000E+00  0.1800E+03
  17.730  0.0000E+00  0.1800E+03
  17.740  0.0000E+00  0.1800E+03
  17.750  0.0000E+00  0.1800E+03
  17.760  0.0000E+00  0.1800E+03
  17.770  0.0000E+00  0.1800E+03
  17.780  0.0000E+00  0.1800E+03
  17.790  0.0000E+00  0.1800E+03
  17.800  0.0000E+00  0.1800E+03
  17.810  0.0000E+00  0.1800E+03
  17.820  0.0000E+00  0.1800E+03
  17.830  0.0000E+00  0.1800E+03
  17.840  0.0000E+00  0.1800E+03
  17.850  0.0000E+00  0.1800E+03
  17.860  0.0000E+00  0.1800E+03
  17.870  0.0000E+00  0.1800E+03
  17.880  0.0000E+00  0.1800E+03
  17.890  0.0000E+00  0.1800E+03
  17.900  0.0000E+00  0.1800E+03
  17.910  0.0000E+00  0.1800E+03
  17.920  0.0000E+00  0.1800E+03
  17.930  0.0000E+00  0.1800E+03
  17.940  0.0000E+00  0.1800E+03
  17.950  0.0000E+00  0.1800E+03
  17.960  0.0000E+00  0.1800E+03
  17.970  0.0000E+00  0.1800E+03
  17.980  0.0000E+00  0.1800E+03
  17.990  0.0000E+00  0.1800E+03
  18.000  0.0000E+00  0.1800E+03
  18.010  0.0000E+00  0.1800E+03
  18.020  0.0000E+00  0.1800E+03
  18.030  0.0000E+00  0.1800E+03
  18.040  0.0000E+00  0.1800E+03
  18.050  0.0000E+00  0.1800E+03
  18.060  0.0000E+00  0.1800E+03
  18.070  0.0000E+00  0.1800E+03
  18.080  0.0000E+00  0.1800E+03
  18.090  0.0000E+00  0.1800E+03
  18.100  0.0000E+00  0.1800E+03
  18.110  0.0000E+00  0.1800E+03
  18.120  0.0000E+00  0.1800E+03
  18.130  0.0000E+00  0.1800E+03
  18.140  0.0000E+00  0.1800E+03
  18.150  0.0000E+00  0.1800E+03
  18.160  0.0000E+00  0.1800E+03
  18.170  0.0000E+00  0.1800E+03
  18.180  0.0000E+00  0.1800E+03
  18.190  0.0000E+00  0.1800E+03
  18.200  0.0000E+00  0.1800E+03
  18.210  0.0000E+00  0.1800E+03
  18.220  0.0000E+00  0.1800E+03
  18.230  0.0000E+00  0.1800E+03
  18.240  0.0000E+00  0.1800E+03
  18.250  0.0000E+00  0.1800E+03
  18.260  0.0000E+00  0.1800E+03
  18.270  0.0000E+00  0.1800E+03
  18.280  0.0000E+00  0.1800E+03
  18.290  0.0000E+00  0.1800E+03
  18.300  0.0000E+00  0.1800E+03
  18.310  0.0000E+00  0.1800E+03
  18.320  0.0000E+00  0.1800E+03
  18.330  0.0000E+00  0.1800E+03
  18.340  0.0000E+00  0.1800E+03
  18.350  0.0000E+00  0.1800E+03
  18.360  0.0000E+00  0.1800E+03
  18.370  0.0000E+00  0.1800E+03
  18.380  0.0000E+00  0.1800E+03
  18.390  0.0000E+00  0.1800E+03
  18.400  0.0000E+00  0.1800E+03
  18.410  0.0000E+00  0.1800E+03
  18.420  0.0000E+00  0.1800E+03
  18.430  0.0000E+00  0.1800E+03
  18.440  0.0000E+00  0.1800E+03
  18.450  0.0000E+00  0.1800E+03
  18.460  0.0000E+00  0.1800E+03
  18.470  0.0000E+00  0.1800E+03
  18.480  0.0000E+00  0.1800E+03
  18.490  0.0000E+00  0.1800E+03
  18.500  0.0000E+00  0.1800E+03
  18.510  0.0000E+00  0.1800E+03
  18.520  0.0000E+00  0.1800E+03
  18.530  0.0000E+00  0.1800E+03
  18.540  0.0000E+00  0.1800E+03
  18.550  0.0000E+00  0.1800E+03
  18.560  0.0000E+00  0.1800E+03
  18.570  0.0000E+00  0.1800E+03
  18.580  0.0000E+00  0.1800E+03
  18.590  0.0000E+00  0.1800E+03
  18.600  0.0000E+00  0.1800E+03
  18.610  0.0000E+00  0.1800E+03
  18.620  0.0000E+00  0.1800E+03
  18.630  0.0000E+00  0.1800E+03
  18.640  0.0000E+00  0.1800E+03
  18.650  0.0000E+00  0.1800E+03
  18.660  0.0000E+00  0.1800E+03
  18.670  0.0000E+00  0.1800E+03
  18.680  0.0000E+00  0.1800E+03
  18.690  0.0000E+00  0.1800E+03
  18.700  0.0000E+00  0.1800E+03
  18.710  0.0000E+00  0.1800E+03
  18.720  0.0000E+00  0.1800E+03
  18.730  0.0000E+00  0.1800E+03
  18.740  0.0000E+00  0.1800E+03
  18.750  0.0000E+00  0.1800E+03
  18.760  0.0000E+00  0.1800E+03
  18.770  0.0000E+00  0.1800E+03
  18.780  0.0000E+00  0.1800E+03
  18.790  0.0000E+00  0.1800E+03
  18.800  0.0000E+00  0.1800E+03
  18.810  0.0000E+00  0.1800E+03
  18.820  0.0000E+00  0.1800E+03
  18.830  0.0000E+00  0.1800E+03
  18.840  0.0000E+00  0.1800E+03
  18.850  0.0000E+00  0.1800E+03
  18.860  0.0000E+00  0.1800E+03
  18.870  0.0000E+00  0.1800E+03
  18.880  0.0000E+00  0.1800E+03
  18.890  0.0000E+00  0.1800E+03
  18.900  0.0000E+00  0.1800E+03
  18.910  0.0000E+00  0.1800E+03
  18.920  0.0000E+00  0.1800E+03
  18.930  0.0000E+00  0.1800E+03
  18.940  0.0000E+00  0.1800E+03
  18.950  0.0000E+00  0.1800E+03
  18.960  0.0000E+00  0.1800E+03
  18.970  0.0000E+00  0.1800E+03
  18.980  0.0000E+00  0.1800E+03
  18.990  0.0000E+00  0.1800E+03
  19.000  0.0000E+00  0.1800E+03
  19.010  0.0000E+00  0.1800E+03
  19.020  0.0000E+00  0.1800E+03
  19.030  0.0000E+00  0.1800E+03
  19.040  0.0000E+00  0.1800E+03
  19.050  0.0000E+00  0.1800E+03
  19.060  0.0000E+00  0.1800E+03
  19.070  0.0000E+00  0.1800E+03
  19.080  0.0000E+00  0.1800E+03
  19.090  0.0000E+00  0.1800E+03
  19.100  0.0000E+00  0.1800E+03
  19.110  0.0000E+00  0.1800E+03
  19.120  0.0000E+00  0.1800E+03
  19.130  0.0000E+00  0.1800E+03
  19.140  0.0000E+00  0.1800E+03
  19.150  0.0000E+00  0.1800E+03
  19.160  0.0000E+00  0.1800E+03
  19.170  0.0000E+00  0.1800E+03
  19.180  0.0000E+00  0.1800E+03
  19.190  0.0000E+00  0.1800E+03
  19.200  0.0000E+00  0.1800E+03
  19.210  0.0000E+00  0.1800E+03
  19.220  0.0000E+00  0.1800E+03
  19.230  0.0000E+00  0.1800E+03
  19.240  0.0000E+00  0.1800E+03
  19.250  0.0000E+00  0.1800E+03
  19.260  0.0000E+00  0.1800E+03
  19.270  0.0000E+00  0.1800E+03
  19.280  0.0000E+00  0.1800E+03
  19.290  0.0000E+00  0.1800E+03
  19.300  0.0000E+00  0.1800E+03
  19.310  0.0000E+00  0.1800E+03
  19.320  0.0000E+00  0.1800E+03
  19.330  0.0000E+00  0.1800E+03
  19.340  0.0000E+00  0.1800E+03
  19.350  0.0000E+00  0.1800E+03
  19.360  0.0000E+00  0.1800E+03
  19.370  0.0000E+00  0.1800E+03
  19.380  0.0000E+00  0.1800E+03
  19.390  0.0000E+00  0.1800E+03
  19.400  0.0000E+00  0.1800E+03
  19.410  0.0000E+00  0.1800E+03
  19.420  0.0000E+00  0.1800E+03
  19.430  0.0000E+00  0.1800E+03
  19.440  0.0000E+00  0.1800E+03
  19.450  0.0000E+00  0.1800E+03
  19.460  0.0000E+00  0.1800E+03
  19.470  0.0000E+00  0.1800E+03
  19.480  0.0000E+00  0.1800E+03
  19.490  0.0000E+00  0.1800E+03
  19.500  0.0000E+00  0.1800E+03
  19.510  0.0000E+00  0.1800E+03
  19.520  0.0000E+00  0.1800E+03
  19.530  0.0000E+00  0.1800E+03
  19.540  0.0000E+00  0.1800E+03
  19.550  0.0000E+00  0.1800E+03
  19.560  0.0000E+00  0.1800E+03
  19.570  0.0000E+00  0.1800E+03
  19.580  0.0000E+00  0.1800E+03
  19.590  0.0000E+00  0.1800E+03
  19.600  0.0000E+00  0.1800E+03
  19.610  0.0000E+00  0.1800E+03
  19.620  0.0000E+00  0.1800E+03
  19.630  0.0000E+00  0.1800E+03
  19.640  0.0000E+00  0.1800E+03
  19.650  0.0000E+00  0.1800E+03
  19.660  0.0000E+00  0.1800E+03
  19.670  0.0000E+00  0.1800E+03
  19.680  0.0000E+00  0.1800E+03
  19.690  0.0000E+00  0.1800E+03
  19.700  0.0000E+00  0.1800E+03
  19.710  0.0000E+00  0.1800E+03
  19.720  0.0000E+00  0.1800E+03
  19.730  0.0000E+00  0.1800E+03
  19.740  0.0000E+00  0.1800E+03
  19.750  0.0000E+00  0.1800E+03
  19.760  0.0000E+00  0.1800E+03
  19.770  0.0000E+00  0.1800E+03
  19.780  0.0000E+00  0.1800E+03
  19.790  0.0000E+00  0.1800E+03
  19.800  0.0000E+00  0.1800E+03
  19.810  0.0000E+00  0.1800E+03
  19.820  0.0000E+00  0.1800E+03
  19.830  0.0000E+00  0.1800E+03
  19.840  0.0000E+00  0.1800E+03
  19.850  0.0000E+00  0.1800E+03
  19.860  0.0000E+00  0.1800E+03
  19.870  0.0000E+00  0.1800E+03
  19.880  0.0000E+00  0.1800E+03
  19.890  0.0000E+00  0.1800E+03
  19.900  0.0000E+00  0.1800E+03
  19.910  0.0000E+00  0.1800E+03
  19.920  0.0000E+00  0.1800E+03
  19.930  0.0000E+00  0.1800E+03
  19.940  0.0000E+00  0.1800E+03
  19.950  0.0000E+00  0.1800E+03
  19.960  0.0000E+00  0.1800E+03
  19.970  0.0000E+00  0.1800E+03
  19.980  0.0000E+00  0.1800E+03
  19.990  0.0000E+00  0.1800E+03
  20.000  0.0000E+00  0.1800E+03
  20.010  0.0000E+00  0.1800E+03
  20.020  0.0000E+00  0.1800E+03
  20.030  0.0000E+00  0.1800E+03
  20.040  0.0000E+00  0.1800E+03
  20.050  0.0000E+00  0.1800E+03
  20.060  0.0000E+00  0.1800E+03
  20.070  0.0000E+00  0.1800E+03
  20.080  0.0000E+00  0.1800E+03
  20.090  0.0000E+00  0.1800E+03
  20.100  0.0000E+00  0.1800E+03
  20.110  0.0000E+00  0.1800E+03
  20.120  0.0000E+00  0.1800E+03
  20.130  0.0000E+00  0.1800E+03
  20.140  0.0000E+00  0.1800E+03
  20.150  0.0000E+00  0.1800E+03
  20.160  0.0000E+00  0.1800E+03
  20.170  0.0000E+00  0.1800E+03
  20.180  0.0000E+00  0.1800E+03
  20.190  0.0000E+00  0.1800E+03
  20.200  0.0000E+00  0.1800E+03
  20.210  0.0000E+00  0.1800E+03
  20.220  0.0000E+00  0.1800E+03
  20.230  0.0000E+00  0.1800E+03
  20.240  0.0000E+00  0.1800E+03
  20.250  0.0000E+00  0.1800E+03
  20.260  0.0000E+00  0.1800E+03
  20.270  0.0000E+00  0.1800E+03
  20.280  0.0000E+00  0.1800E+03
  20.290  0.0000E+00  0.1800E+03
  20.300  0.0000E+00  0.1800E+03
  20.310  0.0000E+00  0.1800E+03
  20.320  0.0000E+00  0.1800E+03
  20.330  0.0000E+00  0.1800E+03
  20.340  0.0000E+00  0.1800E+03
  20.350  0.0000E+00  0.1800E+03
  20.360  0.0000E+00  0.1800E+03
  20.370  0.0000E+00  0.1800E+03
  20.380  0.0000E+00  0.1800E+03
  20.390  0.0000E+00  0.1800E+03
  20.400  0.0000E+00  0.1800E+03
  20.410  0.0000E+00  0.1800E+03
  20.420  0.0000E+00  0.1800E+03
  20.430  0.0000E+00  0.1800E+03
  20.440  0.0000E+00  0.1800E+03
  20.450  0.0000E+00  0.1800E+03
  20.460  0.0000E+00  0.1800E+03
  20.470  0.0000E+00  0.1800E+03
  20.480  0.0000E+00  0.1800E+03
  20.490  0.0000E+00  0.1800E+03
  20.500  0.0000E+00  0.1800E+03
  20.510  0.0000E+00  0.1800E+03
  20.520  0.0000E+00  0.1800E+03
  20.530  0.0000E+00  0.1800E+03
  20.540  0.0000E+00  0.1800E+03
  20.550  0.0000E+00  0.1800E+03
  20.560  0.0000E+00  0.1800E+03
  20.570  0.0000E+00  0.1800E+03
  20.580  0.0000E+00  0.1800E+03
  20.590  0.0000E+00  0.1800E+03
  20.600  0.0000E+00  0.1800E+03
  20.610  0.0000E+00  0.1800E+03
  20.620  0.0000E+00  0.1800E+03
  20.630  0.0000E+00  0.1800E+03
  20.640  0.0000E+00  0.1800E+03
  20.650  0.0000E+00  0.1800E+03
  20.660  0.0000E+00  0.1800E+03
  20.670  0.0000E+00  0.1800E+03
  20.680  0.0000E+00  0.1800E+03
  20.690  0.0000E+00  0.1800E+03
  20.700  0.0000E+00  0.1800E+03
  20.710  0.0000E+00  0.1800E+03
  20.720  0.0000E+00  0.1800E+03
  20.730  0.0000E+00  0.1800E+03
  20.740  0.0000E+00  0.1800E+03
  20.750  0.0000E+00  0.1800E+03
  20.760  0.0000E+00  0.1800E+03
  20.770  0.0000E+00  0.1800E+03
  20.780  0.0000E+00  0.1800E+03
  20.790  0.0000E+00  0.1800E+03
  20.800  0.0000E+00  0.1800E+03
  20.810  0.0000E+00  0.1800E+03
  20.820  0.0000E+00  0.1800E+03
  20.830  0.0000E+00  0.1800E+03
  20.840  0.0000E+00  0.1800E+03
  20.850  0.0000E+00  0.1800E+03
  20.860  0.0000E+00  0.1800E+03
  20.870  0.0000E+00  0.1800E+03
  20.880  0.0000E+00  0.1800E+03
  20.890  0.0000E+00  0.1800E+03
  20.900  0.0000E+00  0.1800E+03
  20.910  0.0000E+00  0.1800E+03
  20.920  0.0000E+00  0.1800E+03
  20.930  0.0000E+00  0.1800E+03
  20.940  0.0000E+00  0.1800E+03
  20.950  0.0000E+00  0.1800E+03
  20.960  0.0000E+00  0.1800E+03
  20.970  0.0000E+00  0.1800E+03
  20.980  0.0000E+00  0.1800E+03
  20.990  0.0000E+00  0.1800E+03
  21.000  0.0000E+00  0.1800E+03
  21.010  0.0000E+00  0.1800E+03
  21.020  0.0000E+00  0.1800E+03
  21.030  0.0000E+00  0.1800E+03
  21.040  0.0000E+00  0.1800E+03
  21.050  0.0000E+00  0.1800E+03
  21.060  0.0000E+00  0.1800E+03
  21.070  0.0000E+00  0.1800E+03
  21.080  0.0000E+00  0.1800E+03
  21.090  0.0000E+00  0.1800E+03
  21.100  0.0000E+00  0.1800E+03
  21.110  0.0000E+00  0.1800E+03
  21.120  0.0000E+00  0.1800E+03
  21.130  0.0000E+00  0.1800E+03
  21.140  0.0000E+00  0.1800E+03
  21.150  0.0000E+00  0.1800E+03
  21.160  0.0000E+00  0.1800E+03
  21.170  0.0000E+00  0.1800E+03
  21.180  0.0000E+00  0.1800E+03
  21.190  0.0000E+00  0.1800E+03
  21.200  0.0000E+00  0.1800E+03
  21.210  0.0000E+00  0.1800E+03
  21.220  0.0000E+00  0.1800E+03
  21.230  0.0000E+00  0.1800E+03
  21.240  0.0000E+00  0.1800E+03
  21.250  0.0000E+00  0.1800E+03
  21.260  0.0000E+00  0.1800E+03
  21.270  0.0000E+00  0.1800E+03
  21.280  0.0000E+00  0.1800E+03
  21.290  0.0000E+00  0.1800E+03
  21.300  0.0000E+00  0.1800E+03
  21.310  0.0000E+00  0.1800E+03
  21.320  0.0000E+00  0.1800E+03
  21.330  0.0000E+00  0.1800E+03
  21.340  0.0000E+00  0.1800E+03
  21.350  0.0000E+00  0.1800E+03
  21.360  0.0000E+00  0.1800E+03
  21.370  0.0000E+00  0.1800E+03
  21.380  0.0000E+00  0.1800E+03
  21.390  0.0000E+00  0.1800E+03
  21.400  0.0000E+00  0.1800E+03
  21.410  0.0000E+00  0.1800E+03
  21.420  0.0000E+00  0.1800E+03
  21.430  0.0000E+00  0.1800E+03
  21.440  0.0000E+00  0.1800E+03
  21.450  0.0000E+00  0.1800E+03
  21.460  0.0000E+00  0.1800E+03
  21.470  0.0000E+00  0.1800E+03
  21.480  0.0000E+00  0.1800E+03
  21.490  0.0000E+00  0.1800E+03
  21.500  0.0000E+00  0.1800E+03
  21.510  0.0000E+00  0.1800E+03
  21.520  0.0000E+00  0.1800E+03
  21.530  0.0000E+00  0.1800E+03
  21.540  0.0000E+00  0.1800E+03
  21.550  0.0000E+00  0.1800E+03
  21.560  0.0000E+00  0.1800E+03
  21.570  0.0000E+00  0.1800E+03
  21.580  0.0000E+00  0.1800E+03
  21.590  0.0000E+00  0.1800E+03
  21.600  0.0000E+00  0.1800E+03
  21.610  0.0000E+00  0.1800E+03
  21.620  0.0000E+00  0.1800E+03
  21.630  0.0000E+00  0.1800E+03
  21.640  0.0000E+00  0.1800E+03
  21.650  0.0000E+00  0.1800E+03
  21.660  0.0000E+00  0.1800E+03
  21.670  0.0000E+00  0.1800E+03
  21.680  0.0000E+00  0.1800E+03
  21.690  0.0000E+00  0.1800E+03
  21.700  0.0000E+00  0.1800E+03
  21.710  0.0000E+00  0.1800E+03
  21.720  0.0000E+00  0.1800E+03
  21.730  0.0000E+00  0.1800E+03
  21.740  0.0000E+00  0.1800E+03
  21.750  0.0000E+00  0.1800E+03
  21.760  0.0000E+00  0.1800E+03
  21.770  0.0000E+00  0.1800E+03
  21.780  0.0000E+00  0.1800E+03
  21.790  0.0000E+00  0.1800E+03
  21.800  0.0000E+00  0.1800E+03
  21.810  0.0000E+00  0.1800E+03
  21.820  0.0000E+00  0.1800E+03
  21.830  0.0000E+00  0.1800E+03
  21.840  0.0000E+00  0.1800E+03
  21.850  0.0000E+00  0.1800E+03
  21.860  0.0000E+00  0.1800E+03
  21.870  0.0000E+00  0.1800E+03
  21.880  0.0000E+00  0.1800E+03
  21.890  0.0000E+00  0.1800E+03
  21.900  0.0000E+00  0.1800E+03
  21.910  0.0000E+00  0.1800E+03
  21.920  0.0000E+00  0.1800E+03
  21.930  0.0000E+00  0.1800E+03
  21.940  0.0000E+00  0.1800E+03
  21.950  0.0000E+00  0.1800E+03
  21.960  0.0000E+00  0.1800E+03
  21.970  0.0000E+00  0.1800E+03
  21.980  0.0000E+00  0.1800E+03
  21.990  0.0000E+00  0.1800E+03
  22.000  0.0000E+00  0.1800E+03
  22.010  0.0000E+00  0.1800E+03
  22.020  0.0000E+00  0.1800E+03
  22.030  0.0000E+00  0.1800E+03
  22.040  0.0000E+00  0.1800E+03
  22.050  0.0000E+00  0.1800E+03
  22.060  0.0000E+00  0.1800E+03
  22.070  0.0000E+00  0.1800E+03
  22.080  0.0000E+00  0.1800E+03
  22.090  0.0000E+00  0.1800E+03
  22.100  0.0000E+00  0.1800E+03
  22.110  0.0000E+00  0.1800E+03
  22.120  0.0000E+00  0.1800E+03
  22.130  0.0000E+00  0.1800E+03
  22.140  0.0000E+00  0.1800E+03
  22.150  0.0000E+00  0.1800E+03
  22.160  0.0000E+00  0.1800E+03
  22.170  0.0000E+00  0.1800E+03
  22.180  0.0000E+00  0.1800E+03
  22.190  0.0000E+00  0.1800E+03
  22.200  0.0000E+00  0.1800E+03
  22.210  0.0000E+00  0.1800E+03
  22.220  0.0000E+00  0.1800E+03
  22.230  0.0000E+00  0.1800E+03
  22.240  0.0000E+00  0.1800E+03
  22.250  0.0000E+00  0.1800E+03
  22.260  0.0000E+00  0.1800E+03
  22.270  0.0000E+00  0.1800E+03
  22.280  0.0000E+00  0.1800E+03
  22.290  0.0000E+00  0.1800E+03
  22.300  0.0000E+00  0.1800E+03
  22.310  0.0000E+00  0.1800E+03
  22.320  0.0000E+00  0.1800E+03
  22.330  0.0000E+00  0.1800E+03
  22.340  0.0000E+00  0.1800E+03
  22.350  0.0000E+00  0.1800E+03
  22.360  0.0000E+00  0.1800E+03
  22.370  0.0000E+00  0.1800E+03
  22.380  0.0000E+00  0.1800E+03
  22.390  0.0000E+00  0.1800E+03
  22.400  0.0000E+00  0.1800E+03
  22.410  0.0000E+00  0.1800E+03
  22.420  0.0000E+00  0.1800E+03
  22.430  0.0000E+00  0.1800E+03
  22.440  0.0000E+00  0.1800E+03
  22.450  0.0000E+00  0.1800E+03
  22.460  0.0000E+00  0.1800E+03
  22.470  0.0000E+00  0.1800E+03
  22.480  0.0000E+00  0.1800E+03
  22.490  0.0000E+00  0.1800E+03
  22.500  0.0000E+00  0.1800E+03
  22.510  0.0000E+00  0.1800E+03
  22.520  0.0000E+00  0.1800E+03
  22.530  0.0000E+00  0.1800E+03
  22.540  0.0000E+00  0.1800E+03
  22.550  0.0000E+00  0.1800E+03
  22.560  0.0000E+00  0.1800E+03
  22.570  0.0000E+00  0.1800E+03
  22.580  0.0000E+00  0.1800E+03
  22.590  0.0000E+00  0.1800E+03
  22.600  0.0000E+00  0.1800E+03
  22.610  0.0000E+00  0.1800E+03
  22.620  0.0000E+00  0.1800E+03
  22.630  0.0000E+00  0.1800E+03
  22.640  0.0000E+00  0.1800E+03
  22.650  0.0000E+00  0.1800E+03
  22.660  0.0000E+00  0.1800E+03
  22.670  0.0000E+00  0.1800E+03
  22.680  0.0000E+00  0.1800E+03
  22.690  0.0000E+00  0.1800E+03
  22.700  0.0000E+00  0.1800E+03
  22.710  0.0000E+00  0.1800E+03
  22.720  0.0000E+00  0.1800E+03
  22.730  0.0000E+00  0.1800E+03
  22.740  0.0000E+00  0.1800E+03
  22.750  0.0000E+00  0.1800E+03
  22.760  0.0000E+00  0.1800E+03
  22.770  0.0000E+00  0.1800E+03
  22.780  0.0000E+00  0.1800E+03
  22.790  0.0000E+00  0.1800E+03
  22.800  0.0000E+00  0.1800E+03
  22.810  0.0000E+00  0.1800E+03
  22.820  0.0000E+00  0.1800E+03
  22.830  0.0000E+00  0.1800E+03
  22.840  0.0000E+00  0.1800E+03
  22.850  0.0000E+00  0.1800E+03
  22.860  0.0000E+00  0.1800E+03
  22.870  0.0000E+00  0.1800E+03
  22.880  0.0000E+00  0.1800E+03
  22.890  0.0000E+00  0.1800E+03
  22.900  0.0000E+00  0.1800E+03
  22.910  0.0000E+00  0.1800E+03
  22.920  0.0000E+00  0.1800E+03
  22.930  0.0000E+00  0.1800E+03
  22.940  0.0000E+00  0.1800E+03
  22.950  0.0000E+00  0.1800E+03
  22.960  0.0000E+00  0.1800E+03
  22.970  0.0000E+00  0.1800E+03
  22.980  0.0000E+00  0.1800E+03
  22.990  0.0000E+00  0.1800E+03
  23.000  0.0000E+00  0.1800E+03
  23.010  0.0000E+00  0.1800E+03
  23.020  0.0000E+00  0.1800E+03
  23.030  0.0000E+00  0.1800E+03
  23.040  0.0000E+00  0.1800E+03
  23.050  0.0000E+00  0.1800E+03
  23.060  0.0000E+00  0.1800E+03
  23.070  0.0000E+00  0.1800E+03
  23.080  0.0000E+00  0.1800E+03
  23.090  0.0000E+00  0.1800E+03
  23.100  0.0000E+00  0.1800E+03
  23.110  0.0000E+00  0.1800E+03
  23.120  0.0000E+00  0.1800E+03
  23.130  0.0000E+00  0.1800E+03
  23.140  0.0000E+00  0.1800E+03
  23.150  0.0000E+00  0.1800E+03
  23.160  0.0000E+00  0.1800E+03
  23.170  0.0000E+00  0.1800E+03
  23.180  0.0000E+00  0.1800E+03
  23.190  0.0000E+00  0.1800E+03
  23.200  0.0000E+00  0.1800E+03
  23.210  0.0000E+00  0.1800E+03
  23.220  0.0000E+00  0.1800E+03
  23.230  0.0000E+00  0.1800E+03
  23.240  0.0000E+00  0.1800E+03
  23.250  0.0000E+00  0.1800E+03
  23.260  0.0000E+00  0.1800E+03
  23.270  0.0000E+00  0.1800E+03
  23.280  0.0000E+00  0.1800E+03
  23.290  0.0000E+00  0.1800E+03
  23.300  0.0000E+00  0.1800E+03
  23.310  0.0000E+00  0.1800E+03
  23.320  0.0000E+00  0.1800E+03
  23.330  0.0000E+00  0.1800E+03
  23.340  0.0000E+00  0.1800E+03
  23.350  0.0000E+00  0.1800E+03
  23.360  0.0000E+00  0.1800E+03
  23.370  0.0000E+00  0.1800E+03
  23.380  0.0000E+00  0.1800E+03
  23.390  0.0000E+00  0.1800E+03
  23.400  0.0000E+00  0.1800E+03
  23.410  0.0000E+00  0.1800E+03
  23.420  0.0000E+00  0.1800E+03
  23.430  0.0000E+00  0.1800E+03
  23.440  0.0000E+00  0.1800E+03
  23.450  0.0000E+00  0.1800E+03
  23.460  0.0000E+00  0.1800E+03
  23.470  0.0000E+00  0.1800E+03
  23.480  0.0000E+00  0.1800E+03
  23.490  0.0000E+00  0.1800E+03
  23.500  0.0000E+00  0.1800E+03
  23.510  0.0000E+00  0.1800E+03
  23.520  0.0000E+00  0.1800E+03
  23.530  0.0000E+00  0.1800E+03
  23.540  0.0000E+00  0.1800E+03
  23.550  0.0000E+00  0.1800E+03
  23.560  0.0000E+00  0.1800E+03
  23.570  0.0000E+00  0.1800E+03
  23.580  0.0000E+00  0.1800E+03
  23.590  0.0000E+00  0.1800E+03
  23.600  0.0000E+00  0.1800E+03
  23.610  0.0000E+00  0.1800E+03
  23.620  0.0000E+00  0.1800E+03
  23.630  0.0000E+00  0.1800E+03
  23.640  0.0000E+00  0.1800E+03
  23.650  0.0000E+00  0.1800E+03
  23.660  0.0000E+00  0.1800E+03
  23.670  0.0000E+00  0.1800E+03
  23.680  0.0000E+00  0.1800E+03
  23.690  0.0000E+00  0.1800E+03
  23.700  0.0000E+00  0.1800E+03
  23.710  0.0000E+00  0.1800E+03
  23.720  0.0000E+00  0.1800E+03
  23.730  0.0000E+00  0.1800E+03
  23.740  0.0000E+00  0.1800E+03
  23.750  0.0000E+00  0.1800E+03
  23.760  0.0000E+00  0.1800E+03
  23.770  0.0000E+00  0.1800E+03
  23.780  0.0000E+00  0.1800E+03
  23.790  0.0000E+00  0.1800E+03
  23.800  0.0000E+00  0.1800E+03
  23.810  0.0000E+00  0.1800E+03
  23.820  0.0000E+00  0.1800E+03
  23.830  0.0000E+00  0.1800E+03
  23.840  0.0000E+00  0.1800E+03
  23.850  0.0000E+00  0.1800E+03
  23.860  0.0000E+00  0.1800E+03
  23.870  0.0000E+00  0.1800E+03
  23.880  0.0000E+00  0.1800E+03
  23.890  0.0000E+00  0.1800E+03
  23.900  0.0000E+00  0.1800E+03
  23.910  0.0000E+00  0.1800E+03
  23.920  0.0000E+00  0.1800E+03
  23.930  0.0000E+00  0.1800E+03
  23.940  0.0000E+00  0.1800E+03
  23.950  0.0000E+00  0.1800E+03
  23.960  0.0000E+00  0.1800E+03
  23.970  0.0000E+00  0.1800E+03
  23.980  0.0000E+00  0.1800E+03
  23.990  0.0000E+00  0.1800E+03
  24.000  0.0000E+00  0.1800E+03
  24.010  0.0000E+00  0.1800E+03
  24.020  0.0000E+00  0.1800E+03
  24.030  0.0000E+00  0.1800E+03
  24.040  0.0000E+00  0.1800E+03
  24.050  0.0000E+00  0.1800E+03
  24.060  0.0000E+00  0.1800E+03
  24.070  0.0000E+00  0.1800E+03
  24.080  0.0000E+00  0.1800E+03
  24.090  0.0000E+00  0.1800E+03
  24.100  0.0000E+00  0.1800E+03
  24.110  0.0000E+00  0.1800E+03
  24.120  0.0000E+00  0.1800E+03
  24.130  0.0000E+00  0.1800E+03
  24.140  0.0000E+00  0.1800E+03
  24.150  0.0000E+00  0.1800E+03
  24.160  0.0000E+00  0.1800E+03
  24.170  0.0000E+00  0.1800E+03
  24.180  0.0000E+00  0.1800E+03
  24.190  0.0000E+00  0.1800E+03
  24.200  0.0000E+00  0.1800E+03
  24.210  0.0000E+00  0.1800E+03
  24.220  0.0000E+00  0.1800E+03
  24.230  0.0000E+00  0.1800E+03
  24.240  0.0000E+00  0.1800E+03
  24.250  0.0000E+00  0.1800E+03
  24.260  0.0000E+00  0.1800E+03
  24.270  0.0000E+00  0.1800E+03
  24.280  0.0000E+00  0.1800E+03
  24.290  0.0000E+00  0.1800E+03
  24.300  0.0000E+00  0.1800E+03
  24.310  0.0000E+00  0.1800E+03
  24.320  0.0000E+00  0.1800E+03
  24.330  0.0000E+00  0.1800E+03
  24.340  0.0000E+00  0.1800E+03
  24.350  0.0000E+00  0.1800E+03
  24.360  0.0000E+00  0.1800E+03
  24.370  0.0000E+00  0.1800E+03
  24.380  0.0000E+00  0.1800E+03
  24.390  0.0000E+00  0.1800E+03
  24.400  0.0000E+00  0.1800E+03
  24.410  0.0000E+00  0.1800E+03
  24.420  0.0000E+00  0.1800E+03
  24.430  0.0000E+00  0.1800E+03
  24.440  0.0000E+00  0.1800E+03
  24.450  0.0000E+00  0.1800E+03
  24.460  0.0000E+00  0.1800E+03
  24.470  0.0000E+00  0.1800E+03
  24.480  0.0000E+00  0.1800E+03
  24.490  0.0000E+00  0.1800E+03
  24.500  0.0000E+00  0.1800E+03
  24.510  0.0000E+00  0.1800E+03
  24.520  0.0000E+00  0.1800E+03
  24.530  0.0000E+00  0.1800E+03
  24.540  0.0000E+00  0.1800E+03
  24.550  0.0000E+00  0.1800E+03
  24.560  0.0000E+00  0.1800E+03
  24.570  0.0000E+00  0.1800E+03
  24.580  0.0000E+00  0.1800E+03
  24.590  0.0000E+00  0.1800E+03
  24.600  0.0000E+00  0.1800E+03
  24.610  0.0000E+00  0.1800E+03
  24.620  0.0000E+00  0.1800E+03
  24.630  0.0000E+00  0.1800E+03
  24.640  0.0000E+00  0.1800E+03
  24.650  0.0000E+00  0.1800E+03
  24.660  0.0000E+00  0.1800E+03
  24.670  0.0000E+00  0.1800E+03
  24.680  0.0000E+00  0.1800E+03
  24.690  0.0000E+00  0.1800E+03
  24.700  0.0000E+00  0.1800E+03
  24.710  0.0000E+00  0.1800E+03
  24.720  0.0000E+00  0.1800E+03
  24.730  0.0000E+00  0.1800E+03
  24.740  0.0000E+00  0.1800E+03
  24.750  0.0000E+00  0.1800E+03
  24.760  0.0000E+00  0.1800E+03
  24.770  0.0000E+00  0.1800E+03
  24.780  0.0000E+00  0.1800E+03
  24.790  0.0000E+00  0.1800E+03
  24.800  0.0000E+00  0.1800E+03
  24.810  0.0000E+00  0.1800E+03
  24.820  0.0000E+00  0.1800E+03
  24.830  0.0000E+00  0.1800E+03
  24.840  0.0000E+00  0.1800E+03
  24.850  0.0000E+00  0.1800E+03
  24.860  0.0000E+00  0.1800E+03
  24.870  0.0000E+00  0.1800E+03
  24.880  0.0000E+00  0.1800E+03
  24.890  0.0000E+00  0.1800E+03
  24.900  0.0000E+00  0.1800E+03
  24.910  0.0000E+00  0.1800E+03
  24.920  0.0000E+00  0.1800E+03
  24.930  0.0000E+00  0.1800E+03
  24.940  0.0000E+00  0.1800E+03
  24.950  0.0000E+00  0.1800E+03
  24.960  0.0000E+00  0.1800E+03
  24.970  0.0000E+00  0.1800E+03
  24.980  0.0000E+00  0.1800E+03
  24.990  0.0000E+00  0.1800E+03
  25.000  0.0000E+00  0.1800E+03
